thisN,thisTrialN,thisRepN,key_resp_3.keys,key_resp_4.keys,key_resp_3.rt,key_resp_3.duration,key_resp_4.rt,key_resp_4.duration,trials.thisRepN,trials.thisTrialN,trials.thisN,trials.thisIndex,thisRow.t,notes,lsl_stream.started,lsl_stream.stopped,setup.started,setup.stopped,welcome.started,welcomeimg.started,key_resp.started,welcome.stopped,key_resp.keys,key_resp.rt,key_resp.duration,instruction.started,instructionimg.started,key_resp_2.started,instruction.stopped,key_resp_2.keys,key_resp_2.rt,key_resp_2.duration,fixation.started,cross.started,cross.stopped,fixation.stopped,trigger,face.started,faceStim.started,key_resp_3.started,faceStim.stopped,key_resp_3.stopped,face.stopped,trials.key_resp_3.keys,break_2.started,break_2.stopped,trials.key_resp_4.keys,trials.key_resp_3.rt,trials.key_resp_3.duration,breakimg.started,breakimg.stopped,break2img.started,key_resp_4.started,trials.key_resp_4.rt,trials.key_resp_4.duration,end.started,finish.started,finish.stopped,end.stopped,participant,session,date,expName,expVersion,psychopyVersion,frameRate,expStart,
,,,,,,,,,,,,,,,0.2383356000063941,0.23840849997941405,,,,,,,,,,,,,,,,,,,,,,,,,,,,,,,,,,,,,,,,,,,,010,001,2026-01-28_16h55.09.607,NESC3137_EEG_experiment,,2025.2.4,238.34890995554127,2026-01-28 16h55.10.142300 -0400,
,,,,,,,,,,,,,,,,,0.23842539999168366,0.23844689992256463,,,,,,,,,,,,,,,,,,,,,,,,,,,,,,,,,,,,,,,,,,010,001,2026-01-28_16h55.09.607,NESC3137_EEG_experiment,,2025.2.4,238.34890995554127,2026-01-28 16h55.10.142300 -0400,
,,,,,,,,,,,,,,,,,,,0.23849689995404333,0.2658597999252379,0.2658597999252379,47.86005539994221,space,47.59207479993347,None,,,,,,,,,,,,,,,,,,,,,,,,,,,,,,,,,,,010,001,2026-01-28_16h55.09.607,NESC3137_EEG_experiment,,2025.2.4,238.34890995554127,2026-01-28 16h55.10.142300 -0400,
,,,,,,,,,,,,,,,,,,,,,,,,,,47.86009249999188,47.86530679999851,47.86530679999851,57.83916639990639,space,9.969017200055532,None,,,,,,,,,,,,,,,,,,,,,,,,,,,,010,001,2026-01-28_16h55.09.607,NESC3137_EEG_experiment,,2025.2.4,238.34890995554127,2026-01-28 16h55.10.142300 -0400,
0,0,0,None,None,,,,,0,0,0,0,57.846392999985255,,,,,,,,,,,,,,,,,,,,57.84212970000226,57.846392999985255,58.43370529997628,58.41831939993426,2,58.432461499935016,58.43370529997628,58.43370529997628,58.92220549995545,58.92220549995545,58.91829870000947,None,58.91833539993968,58.91835569997784,None,,,,,,,,,,,,,010,001,2026-01-28_16h55.09.607,NESC3137_EEG_experiment,,2025.2.4,238.34890995554127,2026-01-28 16h55.10.142300 -0400,
1,0,1,None,None,,,,,1,0,1,0,58.92220549995545,,,,,,,,,,,,,,,,,,,,58.91847379994579,58.92220549995545,59.66739499999676,59.651668199920096,1,59.66602259990759,59.66739499999676,59.66739499999676,60.15561399993021,60.15561399993021,60.15163809992373,None,60.15167269995436,60.151689899968915,None,,,,,,,,,,,,,010,001,2026-01-28_16h55.09.607,NESC3137_EEG_experiment,,2025.2.4,238.34890995554127,2026-01-28 16h55.10.142300 -0400,
2,0,2,down,None,0.4785515000112355,None,,,2,0,2,0,60.15561399993021,,,,,,,,,,,,,,,,,,,,60.15181189996656,60.15561399993021,60.78318439994473,60.76870609994512,2,60.78179369994905,60.78318439994473,60.78318439994473,61.272480099927634,61.272480099927634,61.26859919994604,down,61.26864439994097,61.26866369997151,None,0.4785515000112355,None,,,,,,,,,,,010,001,2026-01-28_16h55.09.607,NESC3137_EEG_experiment,,2025.2.4,238.34890995554127,2026-01-28 16h55.10.142300 -0400,
3,0,3,None,None,,,,,3,0,3,0,61.272480099927634,,,,,,,,,,,,,,,,,,,,61.26879749994259,61.272480099927634,61.89758119999897,61.88129819999449,1,61.89549859997351,61.89758119999897,61.89758119999897,62.384969700011425,62.384969700011425,62.380857300013304,None,62.38089749997016,62.3809449999826,None,,,,,,,,,,,,,010,001,2026-01-28_16h55.09.607,NESC3137_EEG_experiment,,2025.2.4,238.34890995554127,2026-01-28 16h55.10.142300 -0400,
4,0,4,down,None,0.4240198000334203,None,,,4,0,4,0,62.384969700011425,,,,,,,,,,,,,,,,,,,,62.381073399912566,62.384969700011425,63.0858440999873,63.07243269996252,1,63.08461569994688,63.0858440999873,63.0858440999873,,,63.57301329995971,down,63.573066400014795,63.5730880999472,None,0.4240198000334203,None,,,,,,,,,,,010,001,2026-01-28_16h55.09.607,NESC3137_EEG_experiment,,2025.2.4,238.34890995554127,2026-01-28 16h55.10.142300 -0400,
5,0,5,None,None,,,,,5,0,5,0,63.57664629991632,,,,,,,,,,,,,,,,,,,,63.573261599987745,63.57664629991632,64.14488519995939,64.13099049997982,1,64.1435935999034,64.14488519995939,64.14488519995939,64.6349210999906,64.6349210999906,64.63105179998092,None,64.63111289998051,64.63113309990149,None,,,,,,,,,,,,,010,001,2026-01-28_16h55.09.607,NESC3137_EEG_experiment,,2025.2.4,238.34890995554127,2026-01-28 16h55.10.142300 -0400,
6,0,6,None,None,,,,,6,0,6,0,64.6349210999906,,,,,,,,,,,,,,,,,,,,64.6312639999669,64.6349210999906,65.29513979994226,65.28091199998744,2,65.2932826000033,65.29513979994226,65.29513979994226,,,65.78134190000128,None,65.78138519998174,65.78141459997278,None,,,,,,,,,,,,,010,001,2026-01-28_16h55.09.607,NESC3137_EEG_experiment,,2025.2.4,238.34890995554127,2026-01-28 16h55.10.142300 -0400,
7,0,7,None,None,,,,,7,0,7,0,65.78484809992369,,,,,,,,,,,,,,,,,,,,65.78155509999488,65.78484809992369,66.76656249992084,66.75181109993719,2,66.76521149999462,66.76656249992084,66.76656249992084,,,67.2521570000099,None,67.25223049998749,67.25225359993055,None,,,,,,,,,,,,,010,001,2026-01-28_16h55.09.607,NESC3137_EEG_experiment,,2025.2.4,238.34890995554127,2026-01-28 16h55.10.142300 -0400,
8,0,8,None,None,,,,,8,0,8,0,67.25610659993254,,,,,,,,,,,,,,,,,,,,67.25239519996103,67.25610659993254,68.22705399990082,68.21434999990743,1,68.22574199992232,68.22705399990082,68.22705399990082,68.71396490000188,68.71396490000188,68.7100950999884,None,68.71015109994914,68.71016969997436,None,,,,,,,,,,,,,010,001,2026-01-28_16h55.09.607,NESC3137_EEG_experiment,,2025.2.4,238.34890995554127,2026-01-28 16h55.10.142300 -0400,
9,0,9,down,None,0.4748749000718817,None,,,9,0,9,0,68.71396490000188,,,,,,,,,,,,,,,,,,,,68.71028879994992,68.71396490000188,69.274845500011,69.26035260001663,1,69.27344359993003,69.274845500011,69.274845500011,69.76402549992781,69.76402549992781,69.76036909990944,down,69.76043399993796,69.76046839996707,None,0.4748749000718817,None,,,,,,,,,,,010,001,2026-01-28_16h55.09.607,NESC3137_EEG_experiment,,2025.2.4,238.34890995554127,2026-01-28 16h55.10.142300 -0400,
10,0,10,None,None,,,,,10,0,10,0,69.76402549992781,,,,,,,,,,,,,,,,,,,,69.76070719992276,69.76402549992781,70.57000179996248,70.55629480001517,2,70.56859439995605,70.57000179996248,70.57000179996248,71.05976159998681,71.05976159998681,71.05581069993787,None,71.0558524999069,71.05587119993288,None,,,,,,,,,,,,,010,001,2026-01-28_16h55.09.607,NESC3137_EEG_experiment,,2025.2.4,238.34890995554127,2026-01-28 16h55.10.142300 -0400,
11,0,11,None,None,,,,,11,0,11,0,71.05976159998681,,,,,,,,,,,,,,,,,,,,71.05600109999068,71.05976159998681,71.88288639998063,71.86845660000108,1,71.88130080001429,71.88288639998063,71.88288639998063,72.37232460000087,72.37232460000087,72.36861010000575,None,72.36864609993063,72.3686694999924,None,,,,,,,,,,,,,010,001,2026-01-28_16h55.09.607,NESC3137_EEG_experiment,,2025.2.4,238.34890995554127,2026-01-28 16h55.10.142300 -0400,
12,0,12,None,None,,,,,12,0,12,0,72.37232460000087,,,,,,,,,,,,,,,,,,,,72.36879440001212,72.37232460000087,72.96206089993939,72.94867069995962,2,72.96071179991122,72.96206089993939,72.96206089993939,73.45144689991139,73.45144689991139,73.4473708999576,None,73.44740529998671,73.44742280000355,None,,,,,,,,,,,,,010,001,2026-01-28_16h55.09.607,NESC3137_EEG_experiment,,2025.2.4,238.34890995554127,2026-01-28 16h55.10.142300 -0400,
13,0,13,down,None,0.4492995999753475,None,,,13,0,13,0,73.45144689991139,,,,,,,,,,,,,,,,,,,,73.44753759994637,73.45144689991139,74.42651749996003,74.41031029995065,2,74.42462269996759,74.42651749996003,74.42651749996003,74.9139501999598,74.9139501999598,74.91029389994219,down,74.91033669991884,74.91035459993873,None,0.4492995999753475,None,,,,,,,,,,,010,001,2026-01-28_16h55.09.607,NESC3137_EEG_experiment,,2025.2.4,238.34890995554127,2026-01-28 16h55.10.142300 -0400,
14,0,14,None,None,,,,,14,0,14,0,74.9139501999598,,,,,,,,,,,,,,,,,,,,74.91080660000443,74.9139501999598,75.48316669999622,75.46850119996816,1,75.4819290000014,75.48316669999622,75.48316669999622,75.97223949991167,75.97223949991167,75.96847709990107,None,75.96853969991207,75.96855979994871,None,,,,,,,,,,,,,010,001,2026-01-28_16h55.09.607,NESC3137_EEG_experiment,,2025.2.4,238.34890995554127,2026-01-28 16h55.10.142300 -0400,
15,0,15,None,None,,,,,15,0,15,0,75.97223949991167,,,,,,,,,,,,,,,,,,,,75.96869779995177,75.97223949991167,76.7303579999134,76.71441769995727,2,76.72901050001383,76.7303579999134,76.7303579999134,77.21819359995425,77.21819359995425,77.21405139996205,None,77.21408589999191,77.21410400001332,None,,,,,,,,,,,,,010,001,2026-01-28_16h55.09.607,NESC3137_EEG_experiment,,2025.2.4,238.34890995554127,2026-01-28 16h55.10.142300 -0400,
16,0,16,up,None,0.4110219000140205,None,,,16,0,16,0,77.21819359995425,,,,,,,,,,,,,,,,,,,,77.21421849995386,77.21819359995425,78.10269430000335,78.08975359995384,1,78.10141180001665,78.10269430000335,78.10269430000335,78.59308259992395,78.59308259992395,78.58930699992925,up,78.58934959990438,78.58936639991589,None,0.4110219000140205,None,,,,,,,,,,,010,001,2026-01-28_16h55.09.607,NESC3137_EEG_experiment,,2025.2.4,238.34890995554127,2026-01-28 16h55.10.142300 -0400,
17,0,17,down,None,0.3975458999630064,None,,,17,0,17,0,78.59308259992395,,,,,,,,,,,,,,,,,,,,78.58948949992191,78.59308259992395,79.36100349994376,79.34765399992466,1,79.35961539996788,79.36100349994376,79.36100349994376,,,79.84849289990962,down,79.84854539996013,79.8485680000158,None,0.3975458999630064,None,,,,,,,,,,,010,001,2026-01-28_16h55.09.607,NESC3137_EEG_experiment,,2025.2.4,238.34890995554127,2026-01-28 16h55.10.142300 -0400,
18,0,18,None,None,,,,,18,0,18,0,79.85140719998162,,,,,,,,,,,,,,,,,,,,79.84871509997174,79.85140719998162,80.55036999995355,80.53508649999276,2,80.54836329992395,80.55036999995355,80.55036999995355,81.03889600001276,81.03889600001276,81.03511409997009,None,81.03515269991476,81.03517299995292,None,,,,,,,,,,,,,010,001,2026-01-28_16h55.09.607,NESC3137_EEG_experiment,,2025.2.4,238.34890995554127,2026-01-28 16h55.10.142300 -0400,
19,0,19,None,None,,,,,19,0,19,0,81.03889600001276,,,,,,,,,,,,,,,,,,,,81.03529279993381,81.03889600001276,81.55228009994607,81.5390488000121,2,81.55095840001013,81.55228009994607,81.55228009994607,82.03907970001455,82.03907970001455,82.03502019995358,None,82.03505579999182,82.03507330000866,None,,,,,,,,,,,,,010,001,2026-01-28_16h55.09.607,NESC3137_EEG_experiment,,2025.2.4,238.34890995554127,2026-01-28 16h55.10.142300 -0400,
20,0,20,up,None,0.4679489000700414,None,,,20,0,20,0,82.03907970001455,,,,,,,,,,,,,,,,,,,,82.03519309998956,82.03907970001455,82.66970600001514,82.65585499990266,1,82.66799180000089,82.66970600001514,82.66970600001514,83.15971449995413,83.15971449995413,83.15587049990427,up,83.15591279999353,83.15592930000275,None,0.4679489000700414,None,,,,,,,,,,,010,001,2026-01-28_16h55.09.607,NESC3137_EEG_experiment,,2025.2.4,238.34890995554127,2026-01-28 16h55.10.142300 -0400,
21,0,21,None,None,,,,,21,0,21,0,83.15971449995413,,,,,,,,,,,,,,,,,,,,83.15604889998212,83.15971449995413,83.93267979996745,83.91837659990415,2,83.9313189999666,83.93267979996745,83.93267979996745,84.42264589993283,84.42264589993283,84.41824989998713,None,84.41828529990744,84.41830329992808,None,,,,,,,,,,,,,010,001,2026-01-28_16h55.09.607,NESC3137_EEG_experiment,,2025.2.4,238.34890995554127,2026-01-28 16h55.10.142300 -0400,
22,0,22,None,None,,,,,22,0,22,0,84.42264589993283,,,,,,,,,,,,,,,,,,,,84.41841039992869,84.42264589993283,85.186881099944,85.17233919992577,2,85.18558389996178,85.186881099944,85.186881099944,,,85.67246529995464,None,85.67251579998992,85.67253779992461,None,,,,,,,,,,,,,010,001,2026-01-28_16h55.09.607,NESC3137_EEG_experiment,,2025.2.4,238.34890995554127,2026-01-28 16h55.10.142300 -0400,
23,0,23,None,None,,,,,23,0,23,0,85.67655769991688,,,,,,,,,,,,,,,,,,,,85.67268750001676,85.67655769991688,86.35193929995876,86.3391391999321,2,86.35056479997002,86.35193929995876,86.35193929995876,86.83890179998707,86.83890179998707,86.8351982999593,None,86.83526179997716,86.8352833999088,None,,,,,,,,,,,,,010,001,2026-01-28_16h55.09.607,NESC3137_EEG_experiment,,2025.2.4,238.34890995554127,2026-01-28 16h55.10.142300 -0400,
24,0,24,None,None,,,,,24,0,24,0,86.83890179998707,,,,,,,,,,,,,,,,,,,,86.83541699999478,86.83890179998707,87.77701909991447,87.76012290001381,1,87.7741675999714,87.77701909991447,87.77701909991447,,,88.26030660001561,None,88.26036419998854,88.26038699992932,None,,,,,,,,,,,,,010,001,2026-01-28_16h55.09.607,NESC3137_EEG_experiment,,2025.2.4,238.34890995554127,2026-01-28 16h55.10.142300 -0400,
25,0,25,None,None,,,,,25,0,25,0,88.26404969999567,,,,,,,,,,,,,,,,,,,,88.26052809995599,88.26404969999567,89.15193179994822,89.139048299985,2,89.15060229995288,89.15193179994822,89.15193179994822,89.63918209995609,89.63918209995609,89.63485389994457,None,89.63488779996987,89.63491429993883,None,,,,,,,,,,,,,010,001,2026-01-28_16h55.09.607,NESC3137_EEG_experiment,,2025.2.4,238.34890995554127,2026-01-28 16h55.10.142300 -0400,
26,0,26,up,None,0.44025569991208613,None,,,26,0,26,0,89.63918209995609,,,,,,,,,,,,,,,,,,,,89.63502779998817,89.63918209995609,90.22218669997528,90.20622489997186,1,90.22091589996126,90.22218669997528,90.22218669997528,90.70972980000079,90.70972980000079,90.70585619995836,up,90.7058974999236,90.70591439993586,None,0.44025569991208613,None,,,,,,,,,,,010,001,2026-01-28_16h55.09.607,NESC3137_EEG_experiment,,2025.2.4,238.34890995554127,2026-01-28 16h55.10.142300 -0400,
27,0,27,None,None,,,,,27,0,27,0,90.70972980000079,,,,,,,,,,,,,,,,,,,,90.70606140000746,90.70972980000079,91.57697039993946,91.56421709991992,1,91.57496160001028,91.57697039993946,91.57697039993946,92.06404550001025,92.06404550001025,92.05990319990087,None,92.0599390999414,92.05995649995748,None,,,,,,,,,,,,,010,001,2026-01-28_16h55.09.607,NESC3137_EEG_experiment,,2025.2.4,238.34890995554127,2026-01-28 16h55.10.142300 -0400,
28,0,28,down,None,0.450114700011909,None,,,28,0,28,0,92.06404550001025,,,,,,,,,,,,,,,,,,,,92.0600826999871,92.06404550001025,92.99191139999311,92.97669179993682,2,92.99063599994406,92.99191139999311,92.99191139999311,93.48071809997782,93.48071809997782,93.47645379998721,down,93.47649499995168,93.4765228999313,None,0.450114700011909,None,,,,,,,,,,,010,001,2026-01-28_16h55.09.607,NESC3137_EEG_experiment,,2025.2.4,238.34890995554127,2026-01-28 16h55.10.142300 -0400,
29,0,29,None,None,,,,,29,0,29,0,93.48071809997782,,,,,,,,,,,,,,,,,,,,93.47663900000043,93.48071809997782,94.45678929996211,94.4434850999387,1,94.45545179990586,94.45678929996211,94.45678929996211,94.94303739990573,94.94303739990573,94.93992809997872,None,94.93996389990207,94.93998199992348,None,,,,,,,,,,,,,010,001,2026-01-28_16h55.09.607,NESC3137_EEG_experiment,,2025.2.4,238.34890995554127,2026-01-28 16h55.10.142300 -0400,
30,0,30,None,None,,,,,30,0,30,0,94.94303739990573,,,,,,,,,,,,,,,,,,,,94.9401081999531,94.94303739990573,95.45622079994064,95.44326349999756,2,95.4547630000161,95.45622079994064,95.45622079994064,95.94326169998385,95.94326169998385,95.93919609999284,None,95.93923179991543,95.9392494999338,None,,,,,,,,,,,,,010,001,2026-01-28_16h55.09.607,NESC3137_EEG_experiment,,2025.2.4,238.34890995554127,2026-01-28 16h55.10.142300 -0400,
31,0,31,down,None,0.10272850003093481,0.251960999914445,,,31,0,31,0,95.94326169998385,,,,,,,,,,,,,,,,,,,,95.93936710001435,95.94326169998385,96.61140129994601,96.59745819994714,1,96.61003999994136,96.61140129994601,96.61140129994601,97.1015180000104,97.1015180000104,97.0975511999568,down,97.09759149991442,97.09761619998608,None,0.10272850003093481,0.251960999914445,,,,,,,,,,,010,001,2026-01-28_16h55.09.607,NESC3137_EEG_experiment,,2025.2.4,238.34890995554127,2026-01-28 16h55.10.142300 -0400,
32,0,32,None,None,,,,,32,0,32,0,97.1015180000104,,,,,,,,,,,,,,,,,,,,97.09773909999058,97.1015180000104,98.04330619995017,98.02685869997367,2,98.0396815999411,98.04330619995017,98.04330619995017,98.53054369997699,98.53054369997699,98.52668329991866,None,98.52671819995157,98.52673579996917,None,,,,,,,,,,,,,010,001,2026-01-28_16h55.09.607,NESC3137_EEG_experiment,,2025.2.4,238.34890995554127,2026-01-28 16h55.10.142300 -0400,
33,0,33,up,None,0.4301806000294164,None,,,33,0,33,0,98.53054369997699,,,,,,,,,,,,,,,,,,,,98.52684339997359,98.53054369997699,99.0278158999281,99.01409780001268,1,99.02650639996864,99.0278158999281,99.0278158999281,99.51817099994514,99.51817099994514,99.51393949997146,up,99.51397909992374,99.51399619993754,None,0.4301806000294164,None,,,,,,,,,,,010,001,2026-01-28_16h55.09.607,NESC3137_EEG_experiment,,2025.2.4,238.34890995554127,2026-01-28 16h55.10.142300 -0400,
34,0,34,down,None,0.4413437000475824,None,,,34,0,34,0,99.51817099994514,,,,,,,,,,,,,,,,,,,,99.51414429990109,99.51817099994514,100.13243669993244,100.11831049993634,1,100.13108989992179,100.13243669993244,100.13243669993244,,,100.61878399993293,down,100.61889069993049,100.61893170000985,None,0.4413437000475824,None,,,,,,,,,,,010,001,2026-01-28_16h55.09.607,NESC3137_EEG_experiment,,2025.2.4,238.34890995554127,2026-01-28 16h55.10.142300 -0400,
35,0,35,None,None,,,,,35,0,35,0,100.62211329990532,,,,,,,,,,,,,,,,,,,,100.61908249999397,100.62211329990532,101.2271026999224,101.21412089990918,2,101.2257888999302,101.2271026999224,101.2271026999224,101.71388069994282,101.71388069994282,101.70998970000073,None,101.71002719993703,101.71006989991292,None,,,,,,,,,,,,,010,001,2026-01-28_16h55.09.607,NESC3137_EEG_experiment,,2025.2.4,238.34890995554127,2026-01-28 16h55.10.142300 -0400,
36,0,36,up,None,0.47925620002206415,None,,,36,0,36,0,101.71388069994282,,,,,,,,,,,,,,,,,,,,101.71020149998367,101.71388069994282,102.5067437000107,102.49339059996419,1,102.50528649997432,102.5067437000107,102.5067437000107,,,102.99351810000371,up,102.99357279995456,102.99359500000719,None,0.47925620002206415,None,,,,,,,,,,,010,001,2026-01-28_16h55.09.607,NESC3137_EEG_experiment,,2025.2.4,238.34890995554127,2026-01-28 16h55.10.142300 -0400,
37,0,37,None,None,,,,,37,0,37,0,102.99728809995577,,,,,,,,,,,,,,,,,,,,102.99373509990983,102.99728809995577,103.83737470000051,103.82242709991988,2,103.83599609998055,103.83737470000051,103.83737470000051,104.3263464999618,104.3263464999618,104.3223760999972,None,104.32241299992893,104.32243009994272,None,,,,,,,,,,,,,010,001,2026-01-28_16h55.09.607,NESC3137_EEG_experiment,,2025.2.4,238.34890995554127,2026-01-28 16h55.10.142300 -0400,
38,0,38,down,None,0.44989809999242425,None,,,38,0,38,0,104.3263464999618,,,,,,,,,,,,,,,,,,,,104.32268659991678,104.3263464999618,105.19585169991478,105.18087879999075,2,105.1945988999214,105.19585169991478,105.19585169991478,105.68517989991233,105.68517989991233,105.6805883999914,down,105.68063179997262,105.68065019999631,None,0.44989809999242425,None,,,,,,,,,,,010,001,2026-01-28_16h55.09.607,NESC3137_EEG_experiment,,2025.2.4,238.34890995554127,2026-01-28 16h55.10.142300 -0400,
39,0,39,None,None,,,,,39,0,39,0,105.68517989991233,,,,,,,,,,,,,,,,,,,,105.68077699991409,105.68517989991233,106.24915269995108,106.23505869996734,1,106.24781500000972,106.24915269995108,106.24915269995108,106.73907689994667,106.73907689994667,106.73479009990115,None,106.73482419992797,106.7348406999372,None,,,,,,,,,,,,,010,001,2026-01-28_16h55.09.607,NESC3137_EEG_experiment,,2025.2.4,238.34890995554127,2026-01-28 16h55.10.142300 -0400,
40,0,40,None,None,,,,,40,0,40,0,106.73907689994667,,,,,,,,,,,,,,,,,,,,106.73495409998577,106.73907689994667,107.40628789993934,107.39315459993668,2,107.40502159995958,107.40628789993934,107.40628789993934,107.89336320001166,107.89336320001166,107.88919559994247,None,107.889231499983,107.88925010000821,None,,,,,,,,,,,,,010,001,2026-01-28_16h55.09.607,NESC3137_EEG_experiment,,2025.2.4,238.34890995554127,2026-01-28 16h55.10.142300 -0400,
41,0,41,down,None,0.4160945999901742,None,,,41,0,41,0,107.89336320001166,,,,,,,,,,,,,,,,,,,,107.88937129999977,107.89336320001166,108.75769329990726,108.74327380000614,2,108.75628179998603,108.75769329990726,108.75769329990726,109.2471579000121,109.2471579000121,109.24341319990344,down,109.2434576000087,109.2434787999373,None,0.4160945999901742,None,,,,,,,,,,,010,001,2026-01-28_16h55.09.607,NESC3137_EEG_experiment,,2025.2.4,238.34890995554127,2026-01-28 16h55.10.142300 -0400,
42,0,42,None,None,,,,,42,0,42,0,109.2471579000121,,,,,,,,,,,,,,,,,,,,109.24361259990837,109.2471579000121,110.01399509992916,109.99746069998946,1,110.01272579992656,110.01399509992916,110.01399509992916,,,110.49770929990336,None,110.49775579990819,110.49777769995853,None,,,,,,,,,,,,,010,001,2026-01-28_16h55.09.607,NESC3137_EEG_experiment,,2025.2.4,238.34890995554127,2026-01-28 16h55.10.142300 -0400,
43,0,43,None,None,,,,,43,0,43,0,110.50153229990974,,,,,,,,,,,,,,,,,,,,110.49798439990263,110.50153229990974,111.02648749994114,111.01430689997505,2,111.0252288999036,111.02648749994114,111.02648749994114,111.5138570999261,111.5138570999261,111.50996729999315,None,111.51000199990813,111.51001849991735,None,,,,,,,,,,,,,010,001,2026-01-28_16h55.09.607,NESC3137_EEG_experiment,,2025.2.4,238.34890995554127,2026-01-28 16h55.10.142300 -0400,
44,0,44,None,None,,,,,44,0,44,0,111.5138570999261,,,,,,,,,,,,,,,,,,,,111.51014459994622,111.5138570999261,112.4561794999754,112.44314939994365,2,112.4546069999924,112.4561794999754,112.4561794999754,112.94332690001465,112.94332690001465,112.93904500000644,None,112.93908689997625,112.9391115999315,None,,,,,,,,,,,,,010,001,2026-01-28_16h55.09.607,NESC3137_EEG_experiment,,2025.2.4,238.34890995554127,2026-01-28 16h55.10.142300 -0400,
45,0,45,None,None,,,,,45,0,45,0,112.94332690001465,,,,,,,,,,,,,,,,,,,,112.93928239995148,112.94332690001465,113.69796159991529,113.6849222999299,2,113.6962565999711,113.69796159991529,113.69796159991529,114.18471910001244,114.18471910001244,114.18101329996716,None,114.18104930000845,114.18106769991573,None,,,,,,,,,,,,,010,001,2026-01-28_16h55.09.607,NESC3137_EEG_experiment,,2025.2.4,238.34890995554127,2026-01-28 16h55.10.142300 -0400,
46,0,46,None,None,,,,,46,0,46,0,114.18471910001244,,,,,,,,,,,,,,,,,,,,114.18119149992708,114.18471910001244,115.14212649990804,115.12703199998941,1,115.14016179996543,115.14212649990804,115.14212649990804,115.6304202999454,115.6304202999454,115.62665869994089,None,115.62669409997761,115.62671159999445,None,,,,,,,,,,,,,010,001,2026-01-28_16h55.09.607,NESC3137_EEG_experiment,,2025.2.4,238.34890995554127,2026-01-28 16h55.10.142300 -0400,
47,0,47,None,None,,,,,47,0,47,0,115.6304202999454,,,,,,,,,,,,,,,,,,,,115.62683249998372,115.6304202999454,116.33984689996578,116.32663749996573,2,116.33804519998375,116.33984689996578,116.33984689996578,116.82626899995375,116.82626899995375,116.82268310000654,None,116.8227188999299,116.82273529993836,None,,,,,,,,,,,,,010,001,2026-01-28_16h55.09.607,NESC3137_EEG_experiment,,2025.2.4,238.34890995554127,2026-01-28 16h55.10.142300 -0400,
48,0,48,None,None,,,,,48,0,48,0,116.82626899995375,,,,,,,,,,,,,,,,,,,,116.82285639992915,116.82626899995375,117.50819369999226,117.49341649992857,1,117.50600729999132,117.50819369999226,117.50819369999226,117.9970843999181,117.9970843999181,117.99345730000641,None,117.99349829996936,117.99351719999686,None,,,,,,,,,,,,,010,001,2026-01-28_16h55.09.607,NESC3137_EEG_experiment,,2025.2.4,238.34890995554127,2026-01-28 16h55.10.142300 -0400,
49,0,49,None,None,,,,,49,0,49,0,117.9970843999181,,,,,,,,,,,,,,,,,,,,117.99364819994662,117.9970843999181,118.59889129991643,118.58493739995174,1,118.59747839998454,118.59889129991643,118.59889129991643,119.08903299993835,119.08903299993835,119.08511959994212,None,119.08516729995608,119.08518709999043,None,,,,,,,,,,,,,010,001,2026-01-28_16h55.09.607,NESC3137_EEG_experiment,,2025.2.4,238.34890995554127,2026-01-28 16h55.10.142300 -0400,
50,0,50,None,None,,,,,50,0,50,0,119.08903299993835,,,,,,,,,,,,,,,,,,,,119.08535479998682,119.08903299993835,119.69807789998595,119.68503619998228,1,119.69585339992773,119.69807789998595,119.69807789998595,120.1847742999671,120.1847742999671,120.18116659997031,None,120.18120290001389,120.18122109991964,None,,,,,,,,,,,,,010,001,2026-01-28_16h55.09.607,NESC3137_EEG_experiment,,2025.2.4,238.34890995554127,2026-01-28 16h55.10.142300 -0400,
51,0,51,None,None,,,,,51,0,51,0,120.1847742999671,,,,,,,,,,,,,,,,,,,,120.18134769995231,120.1847742999671,121.03300119994674,121.01816039998084,2,121.0312963000033,121.03300119994674,121.03300119994674,,,121.51829999999609,None,121.51834579999559,121.51836759992875,None,,,,,,,,,,,,,010,001,2026-01-28_16h55.09.607,NESC3137_EEG_experiment,,2025.2.4,238.34890995554127,2026-01-28 16h55.10.142300 -0400,
52,0,52,None,None,,,,,52,0,52,0,121.5192481999984,,,,,,,,,,,,,,,,,,,,121.51849869999569,121.5192481999984,122.03974559996277,122.02671020000707,1,122.03831929992884,122.03974559996277,122.03974559996277,122.52632890001405,122.52632890001405,122.52273069997318,None,122.52276929991785,122.52278779994231,None,,,,,,,,,,,,,010,001,2026-01-28_16h55.09.607,NESC3137_EEG_experiment,,2025.2.4,238.34890995554127,2026-01-28 16h55.10.142300 -0400,
53,0,53,None,None,,,,,53,0,53,0,122.52632890001405,,,,,,,,,,,,,,,,,,,,122.52291239995975,122.52632890001405,123.52656849997584,123.49337569996715,2,123.52249369991478,123.52656849997584,123.52656849997584,,,123.99749290000182,None,123.99753930000588,123.99756129994057,None,,,,,,,,,,,,,010,001,2026-01-28_16h55.09.607,NESC3137_EEG_experiment,,2025.2.4,238.34890995554127,2026-01-28 16h55.10.142300 -0400,
54,0,54,None,None,,,,,54,0,54,0,124.00149990001228,,,,,,,,,,,,,,,,,,,,123.99779419996776,124.00149990001228,124.50789619993884,124.49318499991205,2,124.5065917999018,124.50789619993884,124.50789619993884,,,124.99341240001377,None,124.99347869993653,124.99352099990938,None,,,,,,,,,,,,,010,001,2026-01-28_16h55.09.607,NESC3137_EEG_experiment,,2025.2.4,238.34890995554127,2026-01-28 16h55.10.142300 -0400,
55,0,55,None,None,,,,,55,0,55,0,124.99715949990787,,,,,,,,,,,,,,,,,,,,124.99374890001491,124.99715949990787,125.69044439995196,125.67661339999177,1,125.6891257999232,125.69044439995196,125.69044439995196,,,126.18078569998033,None,126.18083039997146,126.1808515000157,None,,,,,,,,,,,,,010,001,2026-01-28_16h55.09.607,NESC3137_EEG_experiment,,2025.2.4,238.34890995554127,2026-01-28 16h55.10.142300 -0400,
56,0,56,None,None,,,,,56,0,56,0,126.18278419994749,,,,,,,,,,,,,,,,,,,,126.18099929997697,126.18278419994749,126.72740969993174,126.71394269994926,2,126.72556139994413,126.72740969993174,126.72740969993174,127.21386569994502,127.21386569994502,127.20996919996105,None,127.21000550000463,127.2100224000169,None,,,,,,,,,,,,,010,001,2026-01-28_16h55.09.607,NESC3137_EEG_experiment,,2025.2.4,238.34890995554127,2026-01-28 16h55.10.142300 -0400,
57,0,57,None,None,,,,,57,0,57,0,127.21386569994502,,,,,,,,,,,,,,,,,,,,127.21014029998332,127.21386569994502,128.1739421999082,128.15976289997343,2,128.17266939999536,128.1739421999082,128.1739421999082,128.6640180000104,128.6640180000104,128.65984440001193,None,128.65988359996118,128.65990109997801,None,,,,,,,,,,,,,010,001,2026-01-28_16h55.09.607,NESC3137_EEG_experiment,,2025.2.4,238.34890995554127,2026-01-28 16h55.10.142300 -0400,
58,0,58,None,None,,,,,58,0,58,0,128.6640180000104,,,,,,,,,,,,,,,,,,,,128.6600314999232,128.6640180000104,129.61834619997535,129.60579689999577,1,129.61677239998244,129.61834619997535,129.61834619997535,130.1055012999568,130.1055012999568,130.1020762999542,None,130.10211350000463,130.10215489997063,None,,,,,,,,,,,,,010,001,2026-01-28_16h55.09.607,NESC3137_EEG_experiment,,2025.2.4,238.34890995554127,2026-01-28 16h55.10.142300 -0400,
59,0,59,None,None,,,,,59,0,59,0,130.1055012999568,,,,,,,,,,,,,,,,,,,,130.1023484999314,130.1055012999568,130.8276902999496,130.8143831999041,2,130.82642659998965,130.8276902999496,130.8276902999496,,,131.31484979996458,None,131.3148952999618,131.31491670000833,None,,,,,,,,,,,,,010,001,2026-01-28_16h55.09.607,NESC3137_EEG_experiment,,2025.2.4,238.34890995554127,2026-01-28 16h55.10.142300 -0400,
60,0,60,None,None,,,,,60,0,60,0,131.3179313999135,,,,,,,,,,,,,,,,,,,,131.31506359996274,131.3179313999135,131.83167659991886,131.81811959994957,1,131.83028160000686,131.83167659991886,131.83167659991886,132.3220885999035,132.3220885999035,132.3182620999869,None,132.3182977999095,132.31832560000475,None,,,,,,,,,,,,,010,001,2026-01-28_16h55.09.607,NESC3137_EEG_experiment,,2025.2.4,238.34890995554127,2026-01-28 16h55.10.142300 -0400,
61,0,61,None,None,,,,,61,0,61,0,132.3220885999035,,,,,,,,,,,,,,,,,,,,132.3184476000024,132.3220885999035,133.02232689992525,133.00147169991396,2,133.01667349995114,133.02232689992525,133.02232689992525,,,133.5060155999381,None,133.50606179994065,133.50608299998567,None,,,,,,,,,,,,,010,001,2026-01-28_16h55.09.607,NESC3137_EEG_experiment,,2025.2.4,238.34890995554127,2026-01-28 16h55.10.142300 -0400,
62,0,62,up,None,0.46286899992264807,None,,,62,0,62,0,133.5096253999509,,,,,,,,,,,,,,,,,,,,133.50622229999863,133.5096253999509,134.47482389991637,134.4598758999491,1,134.47320849995594,134.47482389991637,134.47482389991637,134.96378859994002,134.96378859994002,134.95996589993592,up,134.9600078999065,134.96003059996292,None,0.46286899992264807,None,,,,,,,,,,,010,001,2026-01-28_16h55.09.607,NESC3137_EEG_experiment,,2025.2.4,238.34890995554127,2026-01-28 16h55.10.142300 -0400,
63,0,63,down,None,0.3966251000529155,None,,,63,0,63,0,134.96378859994002,,,,,,,,,,,,,,,,,,,,134.9601879999973,134.96378859994002,135.94106529990677,135.92704659991432,2,135.93974900001194,135.94106529990677,135.94106529990677,136.4304686000105,136.4304686000105,136.42669280001428,down,136.426733899978,136.42675009998493,None,0.3966251000529155,None,,,,,,,,,,,010,001,2026-01-28_16h55.09.607,NESC3137_EEG_experiment,,2025.2.4,238.34890995554127,2026-01-28 16h55.10.142300 -0400,
64,0,64,up,None,0.3927075000246987,None,,,64,0,64,0,136.4304686000105,,,,,,,,,,,,,,,,,,,,136.42691739997827,136.4304686000105,137.15300249995198,137.13916299992707,1,137.1518783000065,137.15300249995198,137.15300249995198,137.64300469995942,137.64300469995942,137.6391996999737,up,137.6392407999374,137.63925719994586,None,0.3927075000246987,None,,,,,,,,,,,010,001,2026-01-28_16h55.09.607,NESC3137_EEG_experiment,,2025.2.4,238.34890995554127,2026-01-28 16h55.10.142300 -0400,
65,0,65,down,None,0.3496598000638187,None,,,65,0,65,0,137.64300469995942,,,,,,,,,,,,,,,,,,,,137.63937729992904,137.64300469995942,138.32402850000653,138.30975089990534,2,138.32272629998624,138.32402850000653,138.32402850000653,,,138.81007759994827,down,138.81012679997366,138.8101540999487,None,0.3496598000638187,None,,,,,,,,,,,010,001,2026-01-28_16h55.09.607,NESC3137_EEG_experiment,,2025.2.4,238.34890995554127,2026-01-28 16h55.10.142300 -0400,
66,0,66,None,None,,,,,66,0,66,0,138.8139159999555,,,,,,,,,,,,,,,,,,,,138.810294099967,138.8139159999555,139.656626699958,139.64365300000645,1,139.65535419993103,139.656626699958,139.656626699958,140.147176999948,140.147176999948,140.14330529992003,None,140.14334149996284,140.143359699985,None,,,,,,,,,,,,,010,001,2026-01-28_16h55.09.607,NESC3137_EEG_experiment,,2025.2.4,238.34890995554127,2026-01-28 16h55.10.142300 -0400,
67,0,67,down,None,0.30606109998188913,None,,,67,0,67,0,140.147176999948,,,,,,,,,,,,,,,,,,,,140.14348400000017,140.147176999948,140.99176179990172,140.97759889997542,2,140.9904384999536,140.99176179990172,140.99176179990172,141.48047329997644,141.48047329997644,141.47667979996186,down,141.47673059999943,141.47674820001703,None,0.30606109998188913,None,,,,,,,,,,,010,001,2026-01-28_16h55.09.607,NESC3137_EEG_experiment,,2025.2.4,238.34890995554127,2026-01-28 16h55.10.142300 -0400,
68,0,68,None,None,,,,,68,0,68,0,141.48047329997644,,,,,,,,,,,,,,,,,,,,141.47688139998354,141.48047329997644,142.29680309991818,142.28082370001357,2,142.29531789990142,142.29680309991818,142.29680309991818,142.7847005999647,142.7847005999647,142.78104329993948,None,142.7811042999383,142.78113989997655,None,,,,,,,,,,,,,010,001,2026-01-28_16h55.09.607,NESC3137_EEG_experiment,,2025.2.4,238.34890995554127,2026-01-28 16h55.10.142300 -0400,
69,0,69,None,None,,,,,69,0,69,0,142.7847005999647,,,,,,,,,,,,,,,,,,,,142.7814615999814,142.7847005999647,143.63010499998927,143.6144268999342,2,143.62825680000242,143.63010499998927,143.63010499998927,144.11808099993505,144.11808099993505,144.1142273999285,None,144.11426379997283,144.1142814999912,None,,,,,,,,,,,,,010,001,2026-01-28_16h55.09.607,NESC3137_EEG_experiment,,2025.2.4,238.34890995554127,2026-01-28 16h55.10.142300 -0400,
70,0,70,None,None,,,,,70,0,70,0,144.11808099993505,,,,,,,,,,,,,,,,,,,,144.11440299998503,144.11808099993505,144.7424001999898,144.7264511999674,2,144.74013019993436,144.7424001999898,144.7424001999898,,,145.22702029999346,None,145.22710869996808,145.22713129990734,None,,,,,,,,,,,,,010,001,2026-01-28_16h55.09.607,NESC3137_EEG_experiment,,2025.2.4,238.34890995554127,2026-01-28 16h55.10.142300 -0400,
71,0,71,None,None,,,,,71,0,71,0,145.23040329990909,,,,,,,,,,,,,,,,,,,,145.2273497999413,145.23040329990909,145.95688189996872,145.9432379999198,1,145.95512980001513,145.95688189996872,145.95688189996872,146.44711569999345,146.44711569999345,146.44335409998894,None,146.44340190000366,146.44342709996272,None,,,,,,,,,,,,,010,001,2026-01-28_16h55.09.607,NESC3137_EEG_experiment,,2025.2.4,238.34890995554127,2026-01-28 16h55.10.142300 -0400,
72,0,72,None,None,,,,,72,0,72,0,146.44711569999345,,,,,,,,,,,,,,,,,,,,146.44368449994363,146.44711569999345,147.08813709998503,147.07292239996605,2,147.0865612999769,147.08813709998503,147.08813709998503,147.57643489993643,147.57643489993643,147.5725069999462,None,147.57254439999815,147.57257159997243,None,,,,,,,,,,,,,010,001,2026-01-28_16h55.09.607,NESC3137_EEG_experiment,,2025.2.4,238.34890995554127,2026-01-28 16h55.10.142300 -0400,
73,0,73,None,None,,,,,73,0,73,0,147.57643489993643,,,,,,,,,,,,,,,,,,,,147.5726977000013,147.57643489993643,148.55193560000043,148.53118960000575,2,148.55065180000383,148.55193560000043,148.55193560000043,,,149.03522019996308,None,149.03528359998018,149.03531800000928,None,,,,,,,,,,,,,010,001,2026-01-28_16h55.09.607,NESC3137_EEG_experiment,,2025.2.4,238.34890995554127,2026-01-28 16h55.10.142300 -0400,
74,0,74,None,None,,,,,74,0,74,0,149.0390471999999,,,,,,,,,,,,,,,,,,,,149.03563349996693,149.0390471999999,149.71088059991598,149.69740589999128,1,149.70937239995692,149.71088059991598,149.71088059991598,150.2012551999651,150.2012551999651,150.19731909991242,None,150.19738869997673,150.19741889997385,None,,,,,,,,,,,,,010,001,2026-01-28_16h55.09.607,NESC3137_EEG_experiment,,2025.2.4,238.34890995554127,2026-01-28 16h55.10.142300 -0400,
75,0,75,None,None,,,,,75,0,75,0,150.2012551999651,,,,,,,,,,,,,,,,,,,,150.19762769993395,150.2012551999651,150.86195339995902,150.84725120000076,1,150.8606711999746,150.86195339995902,150.86195339995902,,,151.34763879992533,None,151.34774399991147,151.3477951999521,None,,,,,,,,,,,,,010,001,2026-01-28_16h55.09.607,NESC3137_EEG_experiment,,2025.2.4,238.34890995554127,2026-01-28 16h55.10.142300 -0400,
76,0,76,None,None,,,,,76,0,76,0,151.3513303999789,,,,,,,,,,,,,,,,,,,,151.34821490000468,151.3513303999789,152.05029239994474,152.0351595999673,1,152.04832429997623,152.05029239994474,152.05029239994474,152.5387923999224,152.5387923999224,152.53512459993362,None,152.535173799959,152.53520319995005,None,,,,,,,,,,,,,010,001,2026-01-28_16h55.09.607,NESC3137_EEG_experiment,,2025.2.4,238.34890995554127,2026-01-28 16h55.10.142300 -0400,
77,0,77,None,None,,,,,77,0,77,0,152.5387923999224,,,,,,,,,,,,,,,,,,,,152.53541329992004,152.5387923999224,153.39173759997357,153.36929049994797,1,153.3904753999086,153.39173759997357,153.39173759997357,,,153.8728884999873,None,153.87296469998546,153.87299209996127,None,,,,,,,,,,,,,010,001,2026-01-28_16h55.09.607,NESC3137_EEG_experiment,,2025.2.4,238.34890995554127,2026-01-28 16h55.10.142300 -0400,
78,0,78,None,None,,,,,78,0,78,0,153.87630719994195,,,,,,,,,,,,,,,,,,,,153.87318699993193,153.87630719994195,154.67576089990325,154.6610746999504,2,154.67448439996224,154.67576089990325,154.67576089990325,155.16408129991032,155.16408129991032,155.1597551999148,None,155.15981869993266,155.1598410999868,None,,,,,,,,,,,,,010,001,2026-01-28_16h55.09.607,NESC3137_EEG_experiment,,2025.2.4,238.34890995554127,2026-01-28 16h55.10.142300 -0400,
79,0,79,None,None,,,,,79,0,79,0,155.16408129991032,,,,,,,,,,,,,,,,,,,,155.15997029992286,155.16408129991032,155.7503603999503,155.73471170000266,2,155.74904929997865,155.7503603999503,155.7503603999503,156.23887429991737,156.23887429991737,156.23469569999725,None,156.23473089991603,156.23474759992678,None,,,,,,,,,,,,,010,001,2026-01-28_16h55.09.607,NESC3137_EEG_experiment,,2025.2.4,238.34890995554127,2026-01-28 16h55.10.142300 -0400,
80,0,80,None,None,,,,,80,0,80,0,156.23887429991737,,,,,,,,,,,,,,,,,,,,156.23485989996698,156.23887429991737,157.05529039993417,157.03515689994674,1,157.0532063000137,157.05529039993417,157.05529039993417,,,157.53972050000448,None,157.53986929997336,157.53993769991212,None,,,,,,,,,,,,,010,001,2026-01-28_16h55.09.607,NESC3137_EEG_experiment,,2025.2.4,238.34890995554127,2026-01-28 16h55.10.142300 -0400,
81,0,81,None,None,,,,,81,0,81,0,157.54340819991194,,,,,,,,,,,,,,,,,,,,157.5401881999569,157.54340819991194,158.17167949990835,158.1527342000045,1,158.1695228999015,158.17167949990835,158.17167949990835,,,158.65561159991194,None,158.65565560001414,158.65567579993512,None,,,,,,,,,,,,,010,001,2026-01-28_16h55.09.607,NESC3137_EEG_experiment,,2025.2.4,238.34890995554127,2026-01-28 16h55.10.142300 -0400,
82,0,82,None,None,,,,,82,0,82,0,158.6598032999318,,,,,,,,,,,,,,,,,,,,158.65584589994978,158.6598032999318,159.55921229999512,159.54324889997952,2,159.55799070000648,159.55921229999512,159.55921229999512,160.04729369992856,160.04729369992856,160.04322389990557,None,160.04325919994153,160.04327569995075,None,,,,,,,,,,,,,010,001,2026-01-28_16h55.09.607,NESC3137_EEG_experiment,,2025.2.4,238.34890995554127,2026-01-28 16h55.10.142300 -0400,
83,0,83,None,None,,,,,83,0,83,0,160.04729369992856,,,,,,,,,,,,,,,,,,,,160.0433932999149,160.04729369992856,160.98285299993586,160.96816029993352,1,160.9815760999918,160.98285299993586,160.98285299993586,,,161.46927170001436,None,161.46931359998416,161.46934879990295,None,,,,,,,,,,,,,010,001,2026-01-28_16h55.09.607,NESC3137_EEG_experiment,,2025.2.4,238.34890995554127,2026-01-28 16h55.10.142300 -0400,
84,0,84,None,None,,,,,84,0,84,0,161.47224739997182,,,,,,,,,,,,,,,,,,,,161.4695020999061,161.47224739997182,162.01738189999014,162.00139999995008,1,162.0154008999234,162.01738189999014,162.01738189999014,,,162.50158449995797,None,162.50162879994605,162.50164969998877,None,,,,,,,,,,,,,010,001,2026-01-28_16h55.09.607,NESC3137_EEG_experiment,,2025.2.4,238.34890995554127,2026-01-28 16h55.10.142300 -0400,
85,0,85,None,None,,,,,85,0,85,0,162.50582620000932,,,,,,,,,,,,,,,,,,,,162.50182389991824,162.50582620000932,163.1203830000013,163.10577369993553,1,163.11883129994385,163.1203830000013,163.1203830000013,163.6095151999034,163.6095151999034,163.60584739991464,None,163.6058942999225,163.6059213000117,None,,,,,,,,,,,,,010,001,2026-01-28_16h55.09.607,NESC3137_EEG_experiment,,2025.2.4,238.34890995554127,2026-01-28 16h55.10.142300 -0400,
86,0,86,None,None,,,,,86,0,86,0,163.6095151999034,,,,,,,,,,,,,,,,,,,,163.60613580001518,163.6095151999034,164.38254949997645,164.3681879999349,2,164.3812049999833,164.38254949997645,164.38254949997645,164.8721584000159,164.8721584000159,164.86829279991798,None,164.86832909996156,164.86834699998144,None,,,,,,,,,,,,,010,001,2026-01-28_16h55.09.607,NESC3137_EEG_experiment,,2025.2.4,238.34890995554127,2026-01-28 16h55.10.142300 -0400,
87,0,87,None,None,,,,,87,0,87,0,164.8721584000159,,,,,,,,,,,,,,,,,,,,164.86847039998975,164.8721584000159,165.56989059993066,165.55555179994553,1,165.56805669993628,165.56989059993066,165.56989059993066,,,166.05577460001223,None,166.05581829999574,166.05583869991824,None,,,,,,,,,,,,,010,001,2026-01-28_16h55.09.607,NESC3137_EEG_experiment,,2025.2.4,238.34890995554127,2026-01-28 16h55.10.142300 -0400,
88,0,88,None,None,,,,,88,0,88,0,166.059735699906,,,,,,,,,,,,,,,,,,,,166.05602179991547,166.059735699906,166.72197720000986,166.70137589995284,1,166.72002569993492,166.72197720000986,166.72197720000986,,,167.20560190000106,None,167.20564830000512,167.20567439997103,None,,,,,,,,,,,,,010,001,2026-01-28_16h55.09.607,NESC3137_EEG_experiment,,2025.2.4,238.34890995554127,2026-01-28 16h55.10.142300 -0400,
89,0,89,None,None,,,,,89,0,89,0,167.20954419998452,,,,,,,,,,,,,,,,,,,,167.20580240001436,167.20954419998452,168.16552199993748,168.14895009994507,2,168.16360410000198,168.16552199993748,168.16552199993748,,,168.6513566999929,None,168.65139569994062,168.65142389992252,None,,,,,,,,,,,,,010,001,2026-01-28_16h55.09.607,NESC3137_EEG_experiment,,2025.2.4,238.34890995554127,2026-01-28 16h55.10.142300 -0400,
90,0,90,None,None,,,,,90,0,90,0,168.65537699998822,,,,,,,,,,,,,,,,,,,,168.65154719993006,168.65537699998822,169.432205399964,169.4180750999367,1,169.4305272999918,169.432205399964,169.432205399964,169.91803489997983,169.91803489997983,169.91532769997139,None,169.91536169999745,169.91537820000667,None,,,,,,,,,,,,,010,001,2026-01-28_16h55.09.607,NESC3137_EEG_experiment,,2025.2.4,238.34890995554127,2026-01-28 16h55.10.142300 -0400,
91,0,91,None,None,,,,,91,0,91,0,169.91803489997983,,,,,,,,,,,,,,,,,,,,169.9154970999807,169.91803489997983,170.90538649994414,170.88894209999125,2,170.903400399955,170.90538649994414,170.90538649994414,171.39314429997467,171.39314429997467,171.38893299992196,None,171.38896749995183,171.3889848999679,None,,,,,,,,,,,,,010,001,2026-01-28_16h55.09.607,NESC3137_EEG_experiment,,2025.2.4,238.34890995554127,2026-01-28 16h55.10.142300 -0400,
92,0,92,None,None,,,,,92,0,92,0,171.39314429997467,,,,,,,,,,,,,,,,,,,,171.38913819997106,171.39314429997467,172.04078709997702,172.02688669995405,1,172.03864579997025,172.04078709997702,172.04078709997702,172.53078129992355,172.53078129992355,172.5263730000006,None,172.52640520001296,172.5264218999073,None,,,,,,,,,,,,,010,001,2026-01-28_16h55.09.607,NESC3137_EEG_experiment,,2025.2.4,238.34890995554127,2026-01-28 16h55.10.142300 -0400,
93,0,93,None,None,,,,,93,0,93,0,172.53078129992355,,,,,,,,,,,,,,,,,,,,172.52653629996348,172.53078129992355,173.47342199995182,173.4598867999157,2,173.47175909997895,173.47342199995182,173.47342199995182,173.9595447999891,173.9595447999891,173.9561823999975,None,173.95622119994368,173.95623959996738,None,,,,,,,,,,,,,010,001,2026-01-28_16h55.09.607,NESC3137_EEG_experiment,,2025.2.4,238.34890995554127,2026-01-28 16h55.10.142300 -0400,
94,0,94,None,None,,,,,94,0,94,0,173.9595447999891,,,,,,,,,,,,,,,,,,,,173.95635719993152,173.9595447999891,174.47825319995172,174.46413089998532,1,174.47638999996707,174.47825319995172,174.47825319995172,174.96788799995556,174.96788799995556,174.9639659000095,None,174.96400009992067,174.96401619992685,None,,,,,,,,,,,,,010,001,2026-01-28_16h55.09.607,NESC3137_EEG_experiment,,2025.2.4,238.34890995554127,2026-01-28 16h55.10.142300 -0400,
95,0,95,None,None,,,,,95,0,95,0,174.96788799995556,,,,,,,,,,,,,,,,,,,,174.96413229999598,174.96788799995556,175.7815438999096,175.76824629993644,2,175.7797544999048,175.7815438999096,175.7815438999096,176.27235129999463,176.27235129999463,176.26824679994024,None,176.26829379994888,176.2683578999713,None,,,,,,,,,,,,,010,001,2026-01-28_16h55.09.607,NESC3137_EEG_experiment,,2025.2.4,238.34890995554127,2026-01-28 16h55.10.142300 -0400,
96,0,96,None,None,,,,,96,0,96,0,176.27235129999463,,,,,,,,,,,,,,,,,,,,176.26856009999756,176.27235129999463,177.08765819994733,177.07272089994512,2,177.0863718999317,177.08765819994733,177.08765819994733,177.5761891999282,177.5761891999282,177.5727307999041,None,177.57281679997686,177.57285899994895,None,,,,,,,,,,,,,010,001,2026-01-28_16h55.09.607,NESC3137_EEG_experiment,,2025.2.4,238.34890995554127,2026-01-28 16h55.10.142300 -0400,
97,0,97,None,None,,,,,97,0,97,0,177.5761891999282,,,,,,,,,,,,,,,,,,,,177.57310449995566,177.5761891999282,178.18362439994235,178.16794239997398,1,178.18184569990262,178.18362439994235,178.18362439994235,,,178.66807849996258,None,178.6681319999043,178.6682540999027,None,,,,,,,,,,,,,010,001,2026-01-28_16h55.09.607,NESC3137_EEG_experiment,,2025.2.4,238.34890995554127,2026-01-28 16h55.10.142300 -0400,
98,0,98,None,None,,,,,98,0,98,0,178.67209399992134,,,,,,,,,,,,,,,,,,,,178.6685712999897,178.67209399992134,179.31209829996806,179.29829029995017,1,179.3106809000019,179.31209829996806,179.31209829996806,179.80174489994533,179.80174489994533,179.79766649997327,None,179.79769909998868,179.79771549999714,None,,,,,,,,,,,,,010,001,2026-01-28_16h55.09.607,NESC3137_EEG_experiment,,2025.2.4,238.34890995554127,2026-01-28 16h55.10.142300 -0400,
99,0,99,None,None,,,,,99,0,99,0,179.80174489994533,,,,,,,,,,,,,,,,,,,,179.79783339996357,179.80174489994533,180.78048149996903,180.76403159997426,1,180.77795499993954,180.78048149996903,180.78048149996903,181.26799769990612,181.26799769990612,181.26376539992634,None,181.2638078999007,181.26382769993506,None,,,,,,,,,,,,,010,001,2026-01-28_16h55.09.607,NESC3137_EEG_experiment,,2025.2.4,238.34890995554127,2026-01-28 16h55.10.142300 -0400,
100,0,100,None,None,,,,,100,0,100,0,181.26799769990612,,,,,,,,,,,,,,,,,,,,181.26398369995877,181.26799769990612,182.05320480000228,182.04012589994818,1,182.05190299998503,182.05320480000228,182.05320480000228,182.54321249993518,182.54321249993518,182.53901109995786,None,182.5390440999763,182.5390606999863,None,,,,,,,,,,,,,010,001,2026-01-28_16h55.09.607,NESC3137_EEG_experiment,,2025.2.4,238.34890995554127,2026-01-28 16h55.10.142300 -0400,
101,0,101,None,None,,,,,101,0,101,0,182.54321249993518,,,,,,,,,,,,,,,,,,,,182.5391791999573,182.54321249993518,183.53814929991495,183.52255609992426,1,183.53641639999114,183.53814929991495,183.53814929991495,184.0266813999042,184.0266813999042,184.02230189996772,None,184.022337900009,184.022379299975,None,,,,,,,,,,,,,010,001,2026-01-28_16h55.09.607,NESC3137_EEG_experiment,,2025.2.4,238.34890995554127,2026-01-28 16h55.10.142300 -0400,
102,0,102,None,None,,,,,102,0,102,0,184.0266813999042,,,,,,,,,,,,,,,,,,,,184.02250029996503,184.0266813999042,185.0194605999859,185.0056818999583,2,185.0181578999618,185.0194605999859,185.0194605999859,185.5097474999493,185.5097474999493,185.50542009994388,None,185.50545269995928,185.50546939997002,None,,,,,,,,,,,,,010,001,2026-01-28_16h55.09.607,NESC3137_EEG_experiment,,2025.2.4,238.34890995554127,2026-01-28 16h55.10.142300 -0400,
103,0,103,None,None,,,,,103,0,103,0,185.5097474999493,,,,,,,,,,,,,,,,,,,,185.50560589996167,185.5097474999493,186.3126093999017,186.29745239997283,1,186.31130459997803,186.3126093999017,186.3126093999017,186.80118889990263,186.80118889990263,186.7972821999574,None,186.79731569997966,186.79733249999117,None,,,,,,,,,,,,,010,001,2026-01-28_16h55.09.607,NESC3137_EEG_experiment,,2025.2.4,238.34890995554127,2026-01-28 16h55.10.142300 -0400,
104,0,104,None,None,,,,,104,0,104,0,186.80118889990263,,,,,,,,,,,,,,,,,,,,186.79745059995912,186.80118889990263,187.33601299999282,187.32230319990776,1,187.3347153000068,187.33601299999282,187.33601299999282,187.82678050000686,187.82678050000686,187.82244709995575,None,187.8225139999995,187.8225522999419,None,,,,,,,,,,,,,010,001,2026-01-28_16h55.09.607,NESC3137_EEG_experiment,,2025.2.4,238.34890995554127,2026-01-28 16h55.10.142300 -0400,
105,0,105,None,None,,,,,105,0,105,0,187.82678050000686,,,,,,,,,,,,,,,,,,,,187.82287659996655,187.82678050000686,188.63188329990953,188.61801420000847,2,188.62943729991093,188.63188329990953,188.63188329990953,,,189.11825479997788,None,189.1183157999767,189.1183488999959,None,,,,,,,,,,,,,010,001,2026-01-28_16h55.09.607,NESC3137_EEG_experiment,,2025.2.4,238.34890995554127,2026-01-28 16h55.10.142300 -0400,
106,0,106,None,None,,,,,106,0,106,0,189.1219927999191,,,,,,,,,,,,,,,,,,,,189.11847270000726,189.1219927999191,189.92431079992093,189.91099050000776,2,189.92314540001098,189.92431079992093,189.92431079992093,190.41372419998515,190.41372419998515,190.41018040000927,None,190.41022799990606,190.41025269997772,None,,,,,,,,,,,,,010,001,2026-01-28_16h55.09.607,NESC3137_EEG_experiment,,2025.2.4,238.34890995554127,2026-01-28 16h55.10.142300 -0400,
107,0,107,None,None,,,,,107,0,107,0,190.41372419998515,,,,,,,,,,,,,,,,,,,,190.41041050001513,190.41372419998515,191.0949967999477,191.08047199994326,1,191.09361479990184,191.0949967999477,191.0949967999477,191.58462689991575,191.58462689991575,191.5804930999875,None,191.5805260000052,191.58054210001137,None,,,,,,,,,,,,,010,001,2026-01-28_16h55.09.607,NESC3137_EEG_experiment,,2025.2.4,238.34890995554127,2026-01-28 16h55.10.142300 -0400,
108,0,108,None,None,,,,,108,0,108,0,191.58462689991575,,,,,,,,,,,,,,,,,,,,191.5806537999306,191.58462689991575,192.47573989990633,192.4614251999883,1,192.47377869999036,192.47573989990633,192.47573989990633,192.9637827000115,192.9637827000115,192.96093469997868,None,192.9609683000017,192.96098520001397,None,,,,,,,,,,,,,010,001,2026-01-28_16h55.09.607,NESC3137_EEG_experiment,,2025.2.4,238.34890995554127,2026-01-28 16h55.10.142300 -0400,
109,0,109,None,None,,,,,109,0,109,0,192.9637827000115,,,,,,,,,,,,,,,,,,,,192.9611749999458,192.9637827000115,193.9630271999631,193.9475711999694,1,193.96142899990082,193.9630271999631,193.9630271999631,194.4513340999838,194.4513340999838,194.44726109993644,None,194.44729489996098,194.4473105999641,None,,,,,,,,,,,,,010,001,2026-01-28_16h55.09.607,NESC3137_EEG_experiment,,2025.2.4,238.34890995554127,2026-01-28 16h55.10.142300 -0400,
110,0,110,None,None,,,,,110,0,110,0,194.4513340999838,,,,,,,,,,,,,,,,,,,,194.44745480001438,194.4513340999838,194.99169559997972,194.97687419992872,2,194.9903305999469,194.99169559997972,194.99169559997972,195.48037989996374,195.48037989996374,195.47679099999368,None,195.47683479997795,195.47685269999783,None,,,,,,,,,,,,,010,001,2026-01-28_16h55.09.607,NESC3137_EEG_experiment,,2025.2.4,238.34890995554127,2026-01-28 16h55.10.142300 -0400,
111,0,111,None,None,,,,,111,0,111,0,195.48037989996374,,,,,,,,,,,,,,,,,,,,195.4770361999981,195.48037989996374,196.28145709994715,196.26833190000616,1,196.28013129997998,196.28145709994715,196.28145709994715,196.77206479990855,196.77206479990855,196.76802839990705,None,196.7680613999255,196.7680768999271,None,,,,,,,,,,,,,010,001,2026-01-28_16h55.09.607,NESC3137_EEG_experiment,,2025.2.4,238.34890995554127,2026-01-28 16h55.10.142300 -0400,
112,0,112,None,None,,,,,112,0,112,0,196.77206479990855,,,,,,,,,,,,,,,,,,,,196.7681949000107,196.77206479990855,197.50249779992737,197.48902360000648,1,197.50126299995463,197.50249779992737,197.50249779992737,197.99306669994257,197.99306669994257,197.98910959996283,None,197.98914939991664,197.98916699993424,None,,,,,,,,,,,,,010,001,2026-01-28_16h55.09.607,NESC3137_EEG_experiment,,2025.2.4,238.34890995554127,2026-01-28 16h55.10.142300 -0400,
113,0,113,None,None,,,,,113,0,113,0,197.99306669994257,,,,,,,,,,,,,,,,,,,,197.98928959993646,197.99306669994257,198.9283729000017,198.91408379992936,2,198.9269317999715,198.9283729000017,198.9283729000017,199.417882299982,199.417882299982,199.4138438999653,None,199.41387809999287,199.41389389999676,None,,,,,,,,,,,,,010,001,2026-01-28_16h55.09.607,NESC3137_EEG_experiment,,2025.2.4,238.34890995554127,2026-01-28 16h55.10.142300 -0400,
114,0,114,None,None,,,,,114,0,114,0,199.417882299982,,,,,,,,,,,,,,,,,,,,199.41401039995253,199.417882299982,200.14268239995,200.12661409995053,1,200.1413598000072,200.14268239995,200.14268239995,,,200.6267696999712,None,200.62687309994362,200.62690709996969,None,,,,,,,,,,,,,010,001,2026-01-28_16h55.09.607,NESC3137_EEG_experiment,,2025.2.4,238.34890995554127,2026-01-28 16h55.10.142300 -0400,
115,0,115,None,None,,,,,115,0,115,0,200.63029539992567,,,,,,,,,,,,,,,,,,,,200.62704269995447,200.63029539992567,201.26768529997207,201.25557179993484,1,201.26643139997032,201.26768529997207,201.26768529997207,201.7554153999081,201.7554153999081,201.75161429995205,None,201.75164819997735,201.75167379993945,None,,,,,,,,,,,,,010,001,2026-01-28_16h55.09.607,NESC3137_EEG_experiment,,2025.2.4,238.34890995554127,2026-01-28 16h55.10.142300 -0400,
116,0,116,None,None,,,,,116,0,116,0,201.7554153999081,,,,,,,,,,,,,,,,,,,,201.75179129990283,201.7554153999081,202.58210709993728,202.56793649995234,1,202.5804723999463,202.58210709993728,202.58210709993728,,,203.0682960000122,None,203.06835179997142,203.06838519999292,None,,,,,,,,,,,,,010,001,2026-01-28_16h55.09.607,NESC3137_EEG_experiment,,2025.2.4,238.34890995554127,2026-01-28 16h55.10.142300 -0400,
117,0,117,None,None,,,,,117,0,117,0,203.0720140999183,,,,,,,,,,,,,,,,,,,,203.06857309991028,203.0720140999183,204.0489589999197,204.03471189993434,1,204.0476079999935,204.0489589999197,204.0489589999197,204.53890039992984,204.53890039992984,204.53454369993415,None,204.53457689995412,204.53459369996563,None,,,,,,,,,,,,,010,001,2026-01-28_16h55.09.607,NESC3137_EEG_experiment,,2025.2.4,238.34890995554127,2026-01-28 16h55.10.142300 -0400,
118,0,118,None,None,,,,,118,0,118,0,204.53890039992984,,,,,,,,,,,,,,,,,,,,204.53472639992833,204.53890039992984,205.3793488999363,205.36499439994805,2,205.37786579993553,205.3793488999363,205.3793488999363,205.86786050000228,205.86786050000228,205.86409990000539,None,205.8641357999295,205.86415199993644,None,,,,,,,,,,,,,010,001,2026-01-28_16h55.09.607,NESC3137_EEG_experiment,,2025.2.4,238.34890995554127,2026-01-28 16h55.10.142300 -0400,
119,0,119,None,None,,,,,119,0,119,0,205.86786050000228,,,,,,,,,,,,,,,,,,,,205.86427829996683,205.86786050000228,206.61095419991761,206.5940818999661,1,206.60866049991455,206.61095419991761,206.61095419991761,,,207.09480859991163,None,207.09485080000013,207.09487109992187,None,,,,,,,,,,,,,010,001,2026-01-28_16h55.09.607,NESC3137_EEG_experiment,,2025.2.4,238.34890995554127,2026-01-28 16h55.10.142300 -0400,
120,0,120,None,None,,,,,120,0,120,0,207.09698619996198,,,,,,,,,,,,,,,,,,,,207.09505199990235,207.09698619996198,207.8729174999753,207.85980759991799,1,207.87113549991045,207.8729174999753,207.8729174999753,208.35940600000322,208.35940600000322,208.35561420000158,None,208.35564540000632,208.35566080000717,None,,,,,,,,,,,,,010,001,2026-01-28_16h55.09.607,NESC3137_EEG_experiment,,2025.2.4,238.34890995554127,2026-01-28 16h55.10.142300 -0400,
121,0,121,None,None,,,,,121,0,121,0,208.35940600000322,,,,,,,,,,,,,,,,,,,,208.35580289992504,208.35940600000322,208.93285719992127,208.91823569999542,1,208.93135089997668,208.93285719992127,208.93285719992127,209.42186829994898,209.42186829994898,209.41810099990107,None,209.41813889995683,209.4181966999313,None,,,,,,,,,,,,,010,001,2026-01-28_16h55.09.607,NESC3137_EEG_experiment,,2025.2.4,238.34890995554127,2026-01-28 16h55.10.142300 -0400,
122,0,122,None,None,,,,,122,0,122,0,209.42186829994898,,,,,,,,,,,,,,,,,,,,209.4183228999609,209.42186829994898,210.0391170999501,210.01814119995106,2,210.03618319996167,210.0391170999501,210.0391170999501,,,210.51845360000152,None,210.51849499996752,210.51851590001024,None,,,,,,,,,,,,,010,001,2026-01-28_16h55.09.607,NESC3137_EEG_experiment,,2025.2.4,238.34890995554127,2026-01-28 16h55.10.142300 -0400,
123,0,123,None,None,,,,,123,0,123,0,210.52202519995626,,,,,,,,,,,,,,,,,,,,210.51865039998665,210.52202519995626,211.40250560001004,211.38472440000623,1,211.40084000001661,211.40250560001004,211.40250560001004,,,211.88932519999798,None,211.8893967999611,211.88943519990426,None,,,,,,,,,,,,,010,001,2026-01-28_16h55.09.607,NESC3137_EEG_experiment,,2025.2.4,238.34890995554127,2026-01-28 16h55.10.142300 -0400,
124,0,124,None,None,,,,,124,0,124,0,211.8930592999095,,,,,,,,,,,,,,,,,,,,211.8897530999966,211.8930592999095,212.6182404999854,212.6054521999322,2,212.6167274999898,212.6182404999854,212.6182404999854,213.10538510000333,213.10538510000333,213.10163139994256,None,213.1016714000143,213.1016897999216,None,,,,,,,,,,,,,010,001,2026-01-28_16h55.09.607,NESC3137_EEG_experiment,,2025.2.4,238.34890995554127,2026-01-28 16h55.10.142300 -0400,
125,0,125,None,None,,,,,125,0,125,0,213.10538510000333,,,,,,,,,,,,,,,,,,,,213.10186359996442,213.10538510000333,213.64047189999837,213.62768649996724,1,213.6391230999725,213.64047189999837,213.64047189999837,214.13029539992567,214.13029539992567,214.12648679991253,None,214.1265196999302,214.1265362999402,None,,,,,,,,,,,,,010,001,2026-01-28_16h55.09.607,NESC3137_EEG_experiment,,2025.2.4,238.34890995554127,2026-01-28 16h55.10.142300 -0400,
126,0,126,None,None,,,,,126,0,126,0,214.13029539992567,,,,,,,,,,,,,,,,,,,,214.12665689992718,214.13029539992567,214.8039720999077,214.78889580001123,2,214.80195210000966,214.8039720999077,214.8039720999077,215.29305269999895,215.29305269999895,215.28900489991065,None,215.289080599905,215.28914119990077,None,,,,,,,,,,,,,010,001,2026-01-28_16h55.09.607,NESC3137_EEG_experiment,,2025.2.4,238.34890995554127,2026-01-28 16h55.10.142300 -0400,
127,0,127,None,None,,,,,127,0,127,0,215.29305269999895,,,,,,,,,,,,,,,,,,,,215.2894207999343,215.29305269999895,216.0566374999471,216.04339939996134,2,216.05505889991764,216.0566374999471,216.0566374999471,216.54276969993953,216.54276969993953,216.54006079991814,None,216.54009449994192,216.54011119995266,None,,,,,,,,,,,,,010,001,2026-01-28_16h55.09.607,NESC3137_EEG_experiment,,2025.2.4,238.34890995554127,2026-01-28 16h55.10.142300 -0400,
128,0,128,None,None,,,,,128,0,128,0,216.54276969993953,,,,,,,,,,,,,,,,,,,,216.54023079993203,216.54276969993953,217.31324289995246,217.29723059991375,2,217.31060939992312,217.31324289995246,217.31324289995246,217.80010979995131,217.80010979995131,217.79716560000088,None,217.7972068999661,217.79722670000046,None,,,,,,,,,,,,,010,001,2026-01-28_16h55.09.607,NESC3137_EEG_experiment,,2025.2.4,238.34890995554127,2026-01-28 16h55.10.142300 -0400,
129,0,129,None,None,,,,,129,0,129,0,217.80010979995131,,,,,,,,,,,,,,,,,,,,217.79737349995412,217.80010979995131,218.36516079993453,218.35127189999912,2,218.36366989999078,218.36516079993453,218.36516079993453,,,218.8514727000147,None,218.8515316999983,218.85157089994755,None,,,,,,,,,,,,,010,001,2026-01-28_16h55.09.607,NESC3137_EEG_experiment,,2025.2.4,238.34890995554127,2026-01-28 16h55.10.142300 -0400,
130,0,130,None,None,,,,,130,0,130,0,218.8553949999623,,,,,,,,,,,,,,,,,,,,218.8517060999293,218.8553949999623,219.82898079999723,219.814492699923,1,219.82679889991414,219.82898079999723,219.82898079999723,220.317822999903,220.317822999903,220.3142398999771,None,220.3142838999629,220.31430909992196,None,,,,,,,,,,,,,010,001,2026-01-28_16h55.09.607,NESC3137_EEG_experiment,,2025.2.4,238.34890995554127,2026-01-28 16h55.10.142300 -0400,
131,0,131,None,None,,,,,131,0,131,0,220.317822999903,,,,,,,,,,,,,,,,,,,,220.31447049998678,220.317822999903,220.83609669993166,220.82220669998787,1,220.83483419998083,220.83609669993166,220.83609669993166,221.32604809990153,221.32604809990153,221.32228490000125,None,221.32231750001665,221.32233419991098,None,,,,,,,,,,,,,010,001,2026-01-28_16h55.09.607,NESC3137_EEG_experiment,,2025.2.4,238.34890995554127,2026-01-28 16h55.10.142300 -0400,
132,0,132,None,None,,,,,132,0,132,0,221.32604809990153,,,,,,,,,,,,,,,,,,,,221.32244819996413,221.32604809990153,221.8688316999469,221.85576539998874,2,221.86750279995613,221.8688316999469,221.8688316999469,,,222.35595579992514,None,222.35599969991017,222.35602119995747,None,,,,,,,,,,,,,010,001,2026-01-28_16h55.09.607,NESC3137_EEG_experiment,,2025.2.4,238.34890995554127,2026-01-28 16h55.10.142300 -0400,
133,0,133,None,None,,,,,133,0,133,0,222.3595847999677,,,,,,,,,,,,,,,,,,,,222.35615859995596,222.3595847999677,223.22792189999018,223.21390729991253,2,223.22584869991988,223.22792189999018,223.22792189999018,223.71775319997687,223.71775319997687,223.71369739994407,None,223.71372959995642,223.71374579996336,None,,,,,,,,,,,,,010,001,2026-01-28_16h55.09.607,NESC3137_EEG_experiment,,2025.2.4,238.34890995554127,2026-01-28 16h55.10.142300 -0400,
134,0,134,None,None,,,,,134,0,134,0,223.71775319997687,,,,,,,,,,,,,,,,,,,,223.71392959996592,223.71775319997687,224.37789789994713,224.36384969996288,2,224.37654059997294,224.37789789994713,224.37789789994713,224.86804450000636,224.86804450000636,224.86372659995686,None,224.8637598999776,224.86377609998453,None,,,,,,,,,,,,,010,001,2026-01-28_16h55.09.607,NESC3137_EEG_experiment,,2025.2.4,238.34890995554127,2026-01-28 16h55.10.142300 -0400,
135,0,135,None,None,,,,,135,0,135,0,224.86804450000636,,,,,,,,,,,,,,,,,,,,224.86388610000722,224.86804450000636,225.69213819992729,225.6764344999101,1,225.69035829999484,225.69213819992729,225.69213819992729,226.18042210000567,226.18042210000567,226.1763925999403,None,226.1764272999717,226.17644369998015,None,,,,,,,,,,,,,010,001,2026-01-28_16h55.09.607,NESC3137_EEG_experiment,,2025.2.4,238.34890995554127,2026-01-28 16h55.10.142300 -0400,
136,0,136,None,None,,,,,136,0,136,0,226.18042210000567,,,,,,,,,,,,,,,,,,,,226.17656479997095,226.18042210000567,227.1277439999394,227.1138677999843,2,227.12619320000522,227.1277439999394,227.1277439999394,227.6136409000028,227.6136409000028,227.6114752999274,None,227.61152609996498,227.61154289997648,None,,,,,,,,,,,,,010,001,2026-01-28_16h55.09.607,NESC3137_EEG_experiment,,2025.2.4,238.34890995554127,2026-01-28 16h55.10.142300 -0400,
137,0,137,None,None,,,,,137,0,137,0,227.6136409000028,,,,,,,,,,,,,,,,,,,,227.61166119994596,227.6136409000028,228.52763469994534,228.51391799992416,1,228.52636069990695,228.52763469994534,228.52763469994534,,,229.01456569996662,None,229.01460839994252,229.01462959998753,None,,,,,,,,,,,,,010,001,2026-01-28_16h55.09.607,NESC3137_EEG_experiment,,2025.2.4,238.34890995554127,2026-01-28 16h55.10.142300 -0400,
138,0,138,None,None,,,,,138,0,138,0,229.0178052999545,,,,,,,,,,,,,,,,,,,,229.01475779991597,229.0178052999545,229.60721639997791,229.59312949993182,1,229.6047685999656,229.60721639997791,229.60721639997791,230.09729770000558,230.09729770000558,230.0930107999593,None,230.0930425999686,230.09305809997022,None,,,,,,,,,,,,,010,001,2026-01-28_16h55.09.607,NESC3137_EEG_experiment,,2025.2.4,238.34890995554127,2026-01-28 16h55.10.142300 -0400,
139,0,139,None,None,,,,,139,0,139,0,230.09729770000558,,,,,,,,,,,,,,,,,,,,230.09316779999062,230.09729770000558,230.83885599998757,230.8229506999487,1,230.8374442999484,230.83885599998757,230.83885599998757,231.3259930999484,231.3259930999484,231.32205720001366,None,231.3220945999492,231.3221129999729,None,,,,,,,,,,,,,010,001,2026-01-28_16h55.09.607,NESC3137_EEG_experiment,,2025.2.4,238.34890995554127,2026-01-28 16h55.10.142300 -0400,
140,0,140,None,None,,,,,140,0,140,0,231.3259930999484,,,,,,,,,,,,,,,,,,,,231.3222567999037,231.3259930999484,232.23343909997493,232.21845509996638,1,232.23213659995236,232.23343909997493,232.23343909997493,232.72193789994344,232.72193789994344,232.71847610000987,None,232.7185124999378,232.71852939995006,None,,,,,,,,,,,,,010,001,2026-01-28_16h55.09.607,NESC3137_EEG_experiment,,2025.2.4,238.34890995554127,2026-01-28 16h55.10.142300 -0400,
141,0,141,None,None,,,,,141,0,141,0,232.72193789994344,,,,,,,,,,,,,,,,,,,,232.7186552999774,232.72193789994344,233.42819369991776,233.4139162999345,1,233.42633349995594,233.42819369991776,233.42819369991776,233.9136324999854,233.9136324999854,233.91147439996712,None,233.91150719998404,233.91154210001696,None,,,,,,,,,,,,,010,001,2026-01-28_16h55.09.607,NESC3137_EEG_experiment,,2025.2.4,238.34890995554127,2026-01-28 16h55.10.142300 -0400,
142,0,142,None,None,,,,,142,0,142,0,233.9136324999854,,,,,,,,,,,,,,,,,,,,233.91166009998415,233.9136324999854,234.80282969994005,234.78462859999854,1,234.80115569999907,234.80282969994005,234.80282969994005,,,235.28896929998882,None,235.28902319993358,235.28905449993908,None,,,,,,,,,,,,,010,001,2026-01-28_16h55.09.607,NESC3137_EEG_experiment,,2025.2.4,238.34890995554127,2026-01-28 16h55.10.142300 -0400,
143,0,143,None,None,,,,,143,0,143,0,235.2929334999062,,,,,,,,,,,,,,,,,,,,235.2892246999545,235.2929334999062,236.2344419999281,236.2220066000009,1,236.2327467999421,236.2344419999281,236.2344419999281,236.72187219990883,236.72187219990883,236.71820519992616,None,236.71824069996364,236.7182570999721,None,,,,,,,,,,,,,010,001,2026-01-28_16h55.09.607,NESC3137_EEG_experiment,,2025.2.4,238.34890995554127,2026-01-28 16h55.10.142300 -0400,
144,0,144,None,None,,,,,144,0,144,0,236.72187219990883,,,,,,,,,,,,,,,,,,,,236.71837189991493,236.72187219990883,237.47659129998647,237.4638543999754,1,237.47530990000814,237.47659129998647,237.47659129998647,237.96355909993872,237.96355909993872,237.95986619999167,None,237.9598992000101,237.95991609990597,None,,,,,,,,,,,,,010,001,2026-01-28_16h55.09.607,NESC3137_EEG_experiment,,2025.2.4,238.34890995554127,2026-01-28 16h55.10.142300 -0400,
145,0,145,None,None,,,,,145,0,145,0,237.96355909993872,,,,,,,,,,,,,,,,,,,,237.96025269990787,237.96355909993872,238.65688899997622,238.6429726999486,1,238.65505299996585,238.65688899997622,238.65688899997622,239.14309599995613,239.14309599995613,239.14002339995932,None,239.14007169997785,239.14009629993234,None,,,,,,,,,,,,,010,001,2026-01-28_16h55.09.607,NESC3137_EEG_experiment,,2025.2.4,238.34890995554127,2026-01-28 16h55.10.142300 -0400,
146,0,146,None,None,,,,,146,0,146,0,239.14309599995613,,,,,,,,,,,,,,,,,,,,239.14024909993168,239.14309599995613,239.73173899995163,239.7179088999983,2,239.7301142999204,239.73173899995163,239.73173899995163,,,240.21802379994188,None,240.21806429990102,240.21808389993384,None,,,,,,,,,,,,,010,001,2026-01-28_16h55.09.607,NESC3137_EEG_experiment,,2025.2.4,238.34890995554127,2026-01-28 16h55.10.142300 -0400,
147,0,147,None,None,,,,,147,0,147,0,240.2218497999711,,,,,,,,,,,,,,,,,,,,240.21823190001305,240.2218497999711,240.7781789000146,240.76397550001275,1,240.77637420000974,240.7781789000146,240.7781789000146,241.26801090000663,241.26801090000663,241.2641285000136,None,241.26416519994382,241.26418189995456,None,,,,,,,,,,,,,010,001,2026-01-28_16h55.09.607,NESC3137_EEG_experiment,,2025.2.4,238.34890995554127,2026-01-28 16h55.10.142300 -0400,
148,0,148,None,None,,,,,148,0,148,0,241.26801090000663,,,,,,,,,,,,,,,,,,,,241.26430689997505,241.26801090000663,241.92394010000862,241.9094449999975,1,241.92252869997174,241.92394010000862,241.92394010000862,242.4137654999504,242.4137654999504,242.40954969997983,None,242.4095828999998,242.40959799999837,None,,,,,,,,,,,,,010,001,2026-01-28_16h55.09.607,NESC3137_EEG_experiment,,2025.2.4,238.34890995554127,2026-01-28 16h55.10.142300 -0400,
149,0,149,None,None,,,,,149,0,149,0,242.4137654999504,,,,,,,,,,,,,,,,,,,,242.4097647999879,242.4137654999504,243.06952279992402,243.055387099972,1,243.0682382999221,243.06952279992402,243.06952279992402,243.5595393999247,243.5595393999247,243.5555086999666,None,243.55554329999723,243.55555960000493,None,,,,,,,,,,,,,010,001,2026-01-28_16h55.09.607,NESC3137_EEG_experiment,,2025.2.4,238.34890995554127,2026-01-28 16h55.10.142300 -0400,
150,0,150,None,None,,,,,150,0,150,0,243.5595393999247,,,,,,,,,,,,,,,,,,,,243.55568809993565,243.5595393999247,244.24564909993205,244.2306174999103,1,244.24340309994295,244.24564909993205,244.24564909993205,244.7343700999627,244.7343700999627,244.73070149996784,None,244.73073429998476,244.7307496999856,None,,,,,,,,,,,,,010,001,2026-01-28_16h55.09.607,NESC3137_EEG_experiment,,2025.2.4,238.34890995554127,2026-01-28 16h55.10.142300 -0400,
151,0,151,None,None,,,,,151,0,151,0,244.7343700999627,,,,,,,,,,,,,,,,,,,,244.73087229998782,244.7343700999627,245.50901679997332,245.49283010000363,1,245.50642449990846,245.50901679997332,245.50901679997332,,,245.99301779991947,None,245.99305819999427,245.99307839991525,None,,,,,,,,,,,,,010,001,2026-01-28_16h55.09.607,NESC3137_EEG_experiment,,2025.2.4,238.34890995554127,2026-01-28 16h55.10.142300 -0400,
152,0,152,None,None,,,,,152,0,152,0,245.9970090999268,,,,,,,,,,,,,,,,,,,,245.99320319993421,245.9970090999268,246.8058757999679,246.7844734999817,1,246.8025107999565,246.8058757999679,246.8058757999679,,,247.28871509991586,None,247.2887832999695,247.28882069990505,None,,,,,,,,,,,,,010,001,2026-01-28_16h55.09.607,NESC3137_EEG_experiment,,2025.2.4,238.34890995554127,2026-01-28 16h55.10.142300 -0400,
153,0,153,None,None,,,,,153,0,153,0,247.29319959995337,,,,,,,,,,,,,,,,,,,,247.2889409000054,247.29319959995337,247.88653379993048,247.87217049999163,1,247.88514379994012,247.88653379993048,247.88653379993048,248.37642129999585,248.37642129999585,248.37221029994544,None,248.37224239995703,248.3722582999617,None,,,,,,,,,,,,,010,001,2026-01-28_16h55.09.607,NESC3137_EEG_experiment,,2025.2.4,238.34890995554127,2026-01-28 16h55.10.142300 -0400,
154,0,154,None,None,,,,,154,0,154,0,248.37642129999585,,,,,,,,,,,,,,,,,,,,248.37236509996,248.37642129999585,249.14200719993096,249.12645719991997,2,249.1407214999199,249.14200719993096,249.14200719993096,249.63033760001417,249.63033760001417,249.6263194999192,None,249.62638709996827,249.62641559995245,None,,,,,,,,,,,,,010,001,2026-01-28_16h55.09.607,NESC3137_EEG_experiment,,2025.2.4,238.34890995554127,2026-01-28 16h55.10.142300 -0400,
155,0,155,None,None,,,,,155,0,155,0,249.63033760001417,,,,,,,,,,,,,,,,,,,,249.62653779995162,249.63033760001417,250.2900031999452,250.2767757999245,1,250.2887064999668,250.2900031999452,250.2900031999452,250.7803331000032,250.7803331000032,250.77635870000813,None,250.77639099990483,250.77640639990568,None,,,,,,,,,,,,,010,001,2026-01-28_16h55.09.607,NESC3137_EEG_experiment,,2025.2.4,238.34890995554127,2026-01-28 16h55.10.142300 -0400,
156,0,156,None,None,,,,,156,0,156,0,250.7803331000032,,,,,,,,,,,,,,,,,,,,250.77652479999233,250.7803331000032,251.56694679998327,251.55196919990703,1,251.56566560000647,251.56694679998327,251.56694679998327,252.0555567999836,252.0555567999836,252.05115159996785,None,252.05118389998097,252.0511990999803,None,,,,,,,,,,,,,010,001,2026-01-28_16h55.09.607,NESC3137_EEG_experiment,,2025.2.4,238.34890995554127,2026-01-28 16h55.10.142300 -0400,
157,0,157,None,None,,,,,157,0,157,0,252.0555567999836,,,,,,,,,,,,,,,,,,,,252.0513088000007,252.0555567999836,252.7304557999596,252.71781760000158,1,252.7289970999118,252.7304557999596,252.7304557999596,253.2178705999395,253.2178705999395,253.21393450000323,None,253.21397149993572,253.21398879995104,None,,,,,,,,,,,,,010,001,2026-01-28_16h55.09.607,NESC3137_EEG_experiment,,2025.2.4,238.34890995554127,2026-01-28 16h55.10.142300 -0400,
158,0,158,None,None,,,,,158,0,158,0,253.2178705999395,,,,,,,,,,,,,,,,,,,,253.21409979998134,253.2178705999395,253.91278989997227,253.89766429993324,2,253.91029039991554,253.91278989997227,253.91278989997227,254.40103369997814,254.40103369997814,254.39736679999623,None,254.39744420000352,254.3974982999498,None,,,,,,,,,,,,,010,001,2026-01-28_16h55.09.607,NESC3137_EEG_experiment,,2025.2.4,238.34890995554127,2026-01-28 16h55.10.142300 -0400,
159,0,159,None,None,,,,,159,0,159,0,254.40103369997814,,,,,,,,,,,,,,,,,,,,254.39763499994297,254.40103369997814,255.3337255999213,255.3139983000001,2,255.3312371999491,255.3337255999213,255.3337255999213,,,255.81841119995806,None,255.8184537999332,255.81847459997516,None,,,,,,,,,,,,,010,001,2026-01-28_16h55.09.607,NESC3137_EEG_experiment,,2025.2.4,238.34890995554127,2026-01-28 16h55.10.142300 -0400,
160,0,160,None,None,,,,,160,0,160,0,255.82195809995756,,,,,,,,,,,,,,,,,,,,255.81866059999447,255.82195809995756,256.45288599992637,256.4393888999475,1,256.4512132999953,256.45288599992637,256.45288599992637,256.942802799982,256.942802799982,256.9389045999851,None,256.93893959990237,256.9389557999093,None,,,,,,,,,,,,,010,001,2026-01-28_16h55.09.607,NESC3137_EEG_experiment,,2025.2.4,238.34890995554127,2026-01-28 16h55.10.142300 -0400,
161,0,161,None,None,,,,,161,0,161,0,256.942802799982,,,,,,,,,,,,,,,,,,,,256.9392520999536,256.942802799982,257.58686149993446,257.5725289999973,2,257.5853430000134,257.58686149993446,257.58686149993446,258.07649619993754,258.07649619993754,258.07203389995266,None,258.0720661999658,258.0720818999689,None,,,,,,,,,,,,,010,001,2026-01-28_16h55.09.607,NESC3137_EEG_experiment,,2025.2.4,238.34890995554127,2026-01-28 16h55.10.142300 -0400,
162,0,162,None,None,,,,,162,0,162,0,258.07649619993754,,,,,,,,,,,,,,,,,,,,258.07220309996046,258.07649619993754,258.7447840999812,258.73056930000894,1,258.74348439997993,258.7447840999812,258.7447840999812,259.23456659994554,259.23456659994554,259.23050870001316,None,259.2305406999076,259.2305556999054,None,,,,,,,,,,,,,010,001,2026-01-28_16h55.09.607,NESC3137_EEG_experiment,,2025.2.4,238.34890995554127,2026-01-28 16h55.10.142300 -0400,
163,0,163,None,None,,,,,163,0,163,0,259.23456659994554,,,,,,,,,,,,,,,,,,,,259.2306668999372,259.23456659994554,259.748223099974,259.73452749999706,1,259.74683409999125,259.748223099974,259.748223099974,260.23433120001573,260.23433120001573,260.2310159999179,None,260.2310613999143,260.2310927999206,None,,,,,,,,,,,,,010,001,2026-01-28_16h55.09.607,NESC3137_EEG_experiment,,2025.2.4,238.34890995554127,2026-01-28 16h55.10.142300 -0400,
164,0,164,None,None,,,,,164,0,164,0,260.23433120001573,,,,,,,,,,,,,,,,,,,,260.2313144999789,260.23433120001573,261.12949829990976,261.11387799994554,2,261.1281639999943,261.12949829990976,261.12949829990976,,,261.61412039992865,None,261.6141895999899,261.6142138999421,None,,,,,,,,,,,,,010,001,2026-01-28_16h55.09.607,NESC3137_EEG_experiment,,2025.2.4,238.34890995554127,2026-01-28 16h55.10.142300 -0400,
165,0,165,None,None,,,,,165,0,165,0,261.61768249992747,,,,,,,,,,,,,,,,,,,,261.61439329991117,261.61768249992747,262.46836439997423,262.45537989994045,2,262.4671210999368,262.46836439997423,262.46836439997423,262.9553631999297,262.9553631999297,262.95114139991347,None,262.95117409992963,262.95118909992743,None,,,,,,,,,,,,,010,001,2026-01-28_16h55.09.607,NESC3137_EEG_experiment,,2025.2.4,238.34890995554127,2026-01-28 16h55.10.142300 -0400,
166,0,166,None,None,,,,,166,0,166,0,262.9553631999297,,,,,,,,,,,,,,,,,,,,262.9512975999387,262.9553631999297,263.620011299965,263.6055747999344,1,263.61875209992286,263.620011299965,263.620011299965,,,264.10578220000025,None,264.1058450000128,264.1058747000061,None,,,,,,,,,,,,,010,001,2026-01-28_16h55.09.607,NESC3137_EEG_experiment,,2025.2.4,238.34890995554127,2026-01-28 16h55.10.142300 -0400,
167,0,167,None,None,,,,,167,0,167,0,264.109339299961,,,,,,,,,,,,,,,,,,,,264.10631019994617,264.109339299961,264.72946890001185,264.7138917999109,2,264.726628699922,264.72946890001185,264.72946890001185,265.2177926999284,265.2177926999284,265.2139864999335,None,265.21403269993607,265.21405790001154,None,,,,,,,,,,,,,010,001,2026-01-28_16h55.09.607,NESC3137_EEG_experiment,,2025.2.4,238.34890995554127,2026-01-28 16h55.10.142300 -0400,
168,0,168,None,None,,,,,168,0,168,0,265.2177926999284,,,,,,,,,,,,,,,,,,,,265.214221799979,265.2177926999284,265.9361323999474,265.9221585999476,1,265.93500469997525,265.9361323999474,265.9361323999474,266.4262318999972,266.4262318999972,266.4222742000129,None,266.42230849992484,266.42232479993254,None,,,,,,,,,,,,,010,001,2026-01-28_16h55.09.607,NESC3137_EEG_experiment,,2025.2.4,238.34890995554127,2026-01-28 16h55.10.142300 -0400,
169,0,169,None,None,,,,,169,0,169,0,266.4262318999972,,,,,,,,,,,,,,,,,,,,266.4224459999241,266.4262318999972,267.3863590999972,267.37203359999694,1,267.3850914000068,267.3863590999972,267.3863590999972,,,267.8724987999303,None,267.8725551000098,267.87259289994836,None,,,,,,,,,,,,,010,001,2026-01-28_16h55.09.607,NESC3137_EEG_experiment,,2025.2.4,238.34890995554127,2026-01-28 16h55.10.142300 -0400,
170,0,170,None,None,,,,,170,0,170,0,267.87605079996865,,,,,,,,,,,,,,,,,,,,267.87279779999517,267.87605079996865,268.44158019998576,268.42641549999826,1,268.43910680001136,268.44158019998576,268.44158019998576,268.9305226999568,268.9305226999568,268.9262688999297,None,268.92631849995814,268.9263472999446,None,,,,,,,,,,,,,010,001,2026-01-28_16h55.09.607,NESC3137_EEG_experiment,,2025.2.4,238.34890995554127,2026-01-28 16h55.10.142300 -0400,
171,0,171,None,None,,,,,171,0,171,0,268.9305226999568,,,,,,,,,,,,,,,,,,,,268.9265249000164,268.9305226999568,269.90673439996317,269.8928381999722,1,269.9053617999889,269.90673439996317,269.90673439996317,270.3925857999129,270.3925857999129,270.3912914999528,None,270.3913247999735,270.39134149998426,None,,,,,,,,,,,,,010,001,2026-01-28_16h55.09.607,NESC3137_EEG_experiment,,2025.2.4,238.34890995554127,2026-01-28 16h55.10.142300 -0400,
172,0,172,None,None,,,,,172,0,172,0,270.3925857999129,,,,,,,,,,,,,,,,,,,,270.3914603999583,270.3925857999129,271.27735469990876,271.26379379990976,2,271.2759833999444,271.27735469990876,271.27735469990876,,,271.7640453999629,None,271.76410249993205,271.764135299949,None,,,,,,,,,,,,,010,001,2026-01-28_16h55.09.607,NESC3137_EEG_experiment,,2025.2.4,238.34890995554127,2026-01-28 16h55.10.142300 -0400,
173,0,173,None,None,,,,,173,0,173,0,271.767744999961,,,,,,,,,,,,,,,,,,,,271.7643701999914,271.767744999961,272.54012599994894,272.5263061999576,2,272.5388699999312,272.54012599994894,272.54012599994894,273.03026669996325,273.03026669996325,273.02627119992394,None,273.02630399994086,273.02631959994324,None,,,,,,,,,,,,,010,001,2026-01-28_16h55.09.607,NESC3137_EEG_experiment,,2025.2.4,238.34890995554127,2026-01-28 16h55.10.142300 -0400,
174,0,174,None,None,,,,,174,0,174,0,273.03026669996325,,,,,,,,,,,,,,,,,,,,273.02643139997963,273.03026669996325,273.6319483999396,273.6180891999975,1,273.63066859997343,273.6319483999396,273.6319483999396,274.122037599911,274.122037599911,274.1180531999562,None,274.11811329994816,274.1181376999011,None,,,,,,,,,,,,,010,001,2026-01-28_16h55.09.607,NESC3137_EEG_experiment,,2025.2.4,238.34890995554127,2026-01-28 16h55.10.142300 -0400,
175,0,175,None,None,,,,,175,0,175,0,274.122037599911,,,,,,,,,,,,,,,,,,,,274.1183005999774,274.122037599911,275.0595364999026,275.044541799929,1,275.058280199999,275.0595364999026,275.0595364999026,275.5469393999083,275.5469393999083,275.5428675999865,None,275.54291059996467,275.54295359994285,None,,,,,,,,,,,,,010,001,2026-01-28_16h55.09.607,NESC3137_EEG_experiment,,2025.2.4,238.34890995554127,2026-01-28 16h55.10.142300 -0400,
176,0,176,None,None,,,,,176,0,176,0,275.5469393999083,,,,,,,,,,,,,,,,,,,,275.5431228999514,275.5469393999083,276.0604829000076,276.04699979990255,1,276.0586917999899,276.0604829000076,276.0604829000076,276.54691779997665,276.54691779997665,276.54325579991564,None,276.5432962999912,276.54332019994035,None,,,,,,,,,,,,,010,001,2026-01-28_16h55.09.607,NESC3137_EEG_experiment,,2025.2.4,238.34890995554127,2026-01-28 16h55.10.142300 -0400,
177,0,177,None,None,,,,,177,0,177,0,276.54691779997665,,,,,,,,,,,,,,,,,,,,276.5434454999631,276.54691779997665,277.2001205999404,277.1816219999455,2,277.1989707999164,277.2001205999404,277.2001205999404,,,277.6846727000084,None,277.6847284999676,277.6847706999397,None,,,,,,,,,,,,,010,001,2026-01-28_16h55.09.607,NESC3137_EEG_experiment,,2025.2.4,238.34890995554127,2026-01-28 16h55.10.142300 -0400,
178,0,178,None,None,,,,,178,0,178,0,277.68851529993117,,,,,,,,,,,,,,,,,,,,277.6849014000036,277.68851529993117,278.5612575999694,278.5472148999106,1,278.559344099951,278.5612575999694,278.5612575999694,,,279.0487586999079,None,279.0488133999752,279.04884429997765,None,,,,,,,,,,,,,010,001,2026-01-28_16h55.09.607,NESC3137_EEG_experiment,,2025.2.4,238.34890995554127,2026-01-28 16h55.10.142300 -0400,
179,0,179,None,None,,,,,179,0,179,0,279.0510360999033,,,,,,,,,,,,,,,,,,,,279.04905249993317,279.0510360999033,279.92777249997016,279.9096053999383,2,279.9264205999207,279.92777249997016,279.92777249997016,,,280.4135140000144,None,280.41355369996745,280.4135740000056,None,,,,,,,,,,,,,010,001,2026-01-28_16h55.09.607,NESC3137_EEG_experiment,,2025.2.4,238.34890995554127,2026-01-28 16h55.10.142300 -0400,
180,0,180,None,None,,,,,180,0,180,0,280.41783509997185,,,,,,,,,,,,,,,,,,,,280.4136937999865,280.41783509997185,281.2657721999567,281.25123029993847,1,281.2644774999935,281.2657721999567,281.2657721999567,281.7552601000061,281.7552601000061,281.75128989992663,None,281.751324599958,281.7513461000053,None,,,,,,,,,,,,,010,001,2026-01-28_16h55.09.607,NESC3137_EEG_experiment,,2025.2.4,238.34890995554127,2026-01-28 16h55.10.142300 -0400,
181,0,181,None,None,,,,,181,0,181,0,281.7552601000061,,,,,,,,,,,,,,,,,,,,281.7514625999611,281.7552601000061,282.6768367999466,282.66399089992046,1,282.67525490000844,282.6768367999466,282.6768367999466,283.1636453999672,283.1636453999672,283.1597241999116,None,283.15976670000236,283.15979039995,None,,,,,,,,,,,,,010,001,2026-01-28_16h55.09.607,NESC3137_EEG_experiment,,2025.2.4,238.34890995554127,2026-01-28 16h55.10.142300 -0400,
182,0,182,None,None,,,,,182,0,182,0,283.1636453999672,,,,,,,,,,,,,,,,,,,,283.15993849991355,283.1636453999672,283.76045449997764,283.7427879999159,1,283.7591520999558,283.76045449997764,283.76045449997764,,,284.24289649992716,None,284.2429354999913,284.2429552999092,None,,,,,,,,,,,,,010,001,2026-01-28_16h55.09.607,NESC3137_EEG_experiment,,2025.2.4,238.34890995554127,2026-01-28 16h55.10.142300 -0400,
183,0,183,None,None,,,,,183,0,183,0,284.2467731999932,,,,,,,,,,,,,,,,,,,,284.24307809991296,284.2467731999932,285.0236270999303,285.00996439997107,1,285.022193999961,285.0236270999303,285.0236270999303,285.51367279991973,285.51367279991973,285.5097402000101,None,285.50987860001624,285.5099076000042,None,,,,,,,,,,,,,010,001,2026-01-28_16h55.09.607,NESC3137_EEG_experiment,,2025.2.4,238.34890995554127,2026-01-28 16h55.10.142300 -0400,
184,0,184,None,None,,,,,184,0,184,0,285.51367279991973,,,,,,,,,,,,,,,,,,,,285.51010419998784,285.51367279991973,286.48806479992345,286.4734206999419,1,286.4866397000151,286.48806479992345,286.48806479992345,286.9762615999207,286.9762615999207,286.97255239996593,None,286.9726478999946,286.97290419996716,None,,,,,,,,,,,,,010,001,2026-01-28_16h55.09.607,NESC3137_EEG_experiment,,2025.2.4,238.34890995554127,2026-01-28 16h55.10.142300 -0400,
185,0,185,None,None,,,,,185,0,185,0,286.9762615999207,,,,,,,,,,,,,,,,,,,,286.9730427999748,286.9762615999207,287.6384422999108,287.62222859996837,2,287.63522469997406,287.6384422999108,287.6384422999108,,,288.12310799991246,None,288.12318489991594,288.1232928999234,None,,,,,,,,,,,,,010,001,2026-01-28_16h55.09.607,NESC3137_EEG_experiment,,2025.2.4,238.34890995554127,2026-01-28 16h55.10.142300 -0400,
186,0,186,None,None,,,,,186,0,186,0,288.1260687999893,,,,,,,,,,,,,,,,,,,,288.1235397999408,288.1260687999893,288.86492839991115,288.8512863999931,2,288.863629499916,288.86492839991115,288.86492839991115,289.3554226999404,289.3554226999404,289.3511924999766,None,289.3512255999958,289.3512411999982,None,,,,,,,,,,,,,010,001,2026-01-28_16h55.09.607,NESC3137_EEG_experiment,,2025.2.4,238.34890995554127,2026-01-28 16h55.10.142300 -0400,
187,0,187,None,None,,,,,187,0,187,0,289.3554226999404,,,,,,,,,,,,,,,,,,,,289.35135489993263,289.3554226999404,289.96970949997194,289.95217009994667,2,289.96778019994963,289.96970949997194,289.96970949997194,,,290.455678600003,None,290.45571619994007,290.4557341999607,None,,,,,,,,,,,,,010,001,2026-01-28_16h55.09.607,NESC3137_EEG_experiment,,2025.2.4,238.34890995554127,2026-01-28 16h55.10.142300 -0400,
188,0,188,None,None,,,,,188,0,188,0,290.4596909999382,,,,,,,,,,,,,,,,,,,,290.45585099991877,290.4596909999382,291.4014893999556,291.3887604000047,2,291.39968129992485,291.4014893999556,291.4014893999556,291.88847509992775,291.88847509992775,291.8845283999108,None,291.88458149996586,291.88460839993786,None,,,,,,,,,,,,,010,001,2026-01-28_16h55.09.607,NESC3137_EEG_experiment,,2025.2.4,238.34890995554127,2026-01-28 16h55.10.142300 -0400,
189,0,189,None,None,,,,,189,0,189,0,291.88847509992775,,,,,,,,,,,,,,,,,,,,291.8847339999629,291.88847509992775,292.43861579999793,292.42633789998945,2,292.43725299998187,292.43861579999793,292.43861579999793,292.92616119992454,292.92616119992454,292.922276499914,None,292.9223095999332,292.9223263999447,None,,,,,,,,,,,,,010,001,2026-01-28_16h55.09.607,NESC3137_EEG_experiment,,2025.2.4,238.34890995554127,2026-01-28 16h55.10.142300 -0400,
190,0,190,None,None,,,,,190,0,190,0,292.92616119992454,,,,,,,,,,,,,,,,,,,,292.9224532999797,292.92616119992454,293.77910809998866,293.7638193999883,1,293.77785049995873,293.77910809998866,293.77910809998866,294.26916479994543,294.26916479994543,294.2636806999799,None,294.26371129998006,294.26372629997786,None,,,,,,,,,,,,,010,001,2026-01-28_16h55.09.607,NESC3137_EEG_experiment,,2025.2.4,238.34890995554127,2026-01-28 16h55.10.142300 -0400,
191,0,191,None,None,,,,,191,0,191,0,294.26916479994543,,,,,,,,,,,,,,,,,,,,294.26383139996324,294.26916479994543,294.97619419998955,294.95548779994715,2,294.9675825999584,294.97619419998955,294.97619419998955,,,295.45993249991443,None,295.45998399995733,295.46001319994684,None,,,,,,,,,,,,,010,001,2026-01-28_16h55.09.607,NESC3137_EEG_experiment,,2025.2.4,238.34890995554127,2026-01-28 16h55.10.142300 -0400,
192,0,192,None,None,,,,,192,0,192,0,295.46351189992856,,,,,,,,,,,,,,,,,,,,295.46018389996607,295.46351189992856,296.19839039992075,296.1850060999859,2,296.1970531999832,296.19839039992075,296.19839039992075,296.68840489990544,296.68840489990544,296.6845142999664,None,296.6845742999576,296.6845920999767,None,,,,,,,,,,,,,010,001,2026-01-28_16h55.09.607,NESC3137_EEG_experiment,,2025.2.4,238.34890995554127,2026-01-28 16h55.10.142300 -0400,
193,0,193,None,None,,,,,193,0,193,0,296.68840489990544,,,,,,,,,,,,,,,,,,,,296.6847127999645,296.68840489990544,297.2903661999153,297.27624299994204,1,297.28837439999916,297.2903661999153,297.2903661999153,,,297.7775047000032,None,297.77754519996233,297.77756670000963,None,,,,,,,,,,,,,010,001,2026-01-28_16h55.09.607,NESC3137_EEG_experiment,,2025.2.4,238.34890995554127,2026-01-28 16h55.10.142300 -0400,
194,0,194,None,None,,,,,194,0,194,0,297.78020739997737,,,,,,,,,,,,,,,,,,,,297.7777258999413,297.78020739997737,298.69909959996585,298.6844678999623,2,298.69781399995554,298.69909959996585,298.69909959996585,299.1884187000105,299.1884187000105,299.184563399991,None,299.1845995999174,299.1846172999358,None,,,,,,,,,,,,,010,001,2026-01-28_16h55.09.607,NESC3137_EEG_experiment,,2025.2.4,238.34890995554127,2026-01-28 16h55.10.142300 -0400,
195,0,195,None,None,,,,,195,0,195,0,299.1884187000105,,,,,,,,,,,,,,,,,,,,299.1847364999121,299.1884187000105,299.85071549995337,299.8350766999647,2,299.84911529999226,299.85071549995337,299.85071549995337,,,300.33535629999824,None,300.3353941999376,300.3354138999712,None,,,,,,,,,,,,,010,001,2026-01-28_16h55.09.607,NESC3137_EEG_experiment,,2025.2.4,238.34890995554127,2026-01-28 16h55.10.142300 -0400,
196,0,196,None,None,,,,,196,0,196,0,300.3387699999148,,,,,,,,,,,,,,,,,,,,300.335532899946,300.3387699999148,301.1663930999348,301.15140470000915,1,301.16502269997727,301.1663930999348,301.1663930999348,301.655277099926,301.655277099926,301.65122589992825,None,301.65126109996345,301.6512788999826,None,,,,,,,,,,,,,010,001,2026-01-28_16h55.09.607,NESC3137_EEG_experiment,,2025.2.4,238.34890995554127,2026-01-28 16h55.10.142300 -0400,
197,0,197,None,None,,,,,197,0,197,0,301.655277099926,,,,,,,,,,,,,,,,,,,,301.6514001999749,301.655277099926,302.21983109996654,302.20517500001006,2,302.21829599991906,302.21983109996654,302.21983109996654,,,302.70546059997287,None,302.7055029999465,302.7055251999991,None,,,,,,,,,,,,,010,001,2026-01-28_16h55.09.607,NESC3137_EEG_experiment,,2025.2.4,238.34890995554127,2026-01-28 16h55.10.142300 -0400,
198,0,198,None,None,,,,,198,0,198,0,302.7094588999171,,,,,,,,,,,,,,,,,,,,302.7056550999405,302.7094588999171,303.27781659993343,303.26377339998726,2,303.27652059996035,303.27781659993343,303.27781659993343,,,303.764254199923,None,303.7643120000139,303.7643613999244,None,,,,,,,,,,,,,010,001,2026-01-28_16h55.09.607,NESC3137_EEG_experiment,,2025.2.4,238.34890995554127,2026-01-28 16h55.10.142300 -0400,
199,0,199,None,None,,,,,199,0,199,0,303.76759329997003,,,,,,,,,,,,,,,,,,,,303.76456219994,303.76759329997003,304.59364529990125,304.5802065000171,2,304.5922692999011,304.59364529990125,304.59364529990125,305.084506199928,305.084506199928,305.0802204000065,None,305.0802534999093,305.0802715999307,None,,,,,,,,,,,,,010,001,2026-01-28_16h55.09.607,NESC3137_EEG_experiment,,2025.2.4,238.34890995554127,2026-01-28 16h55.10.142300 -0400,
200,0,200,None,space,,,16.8656970000593,None,200,0,200,0,305.084506199928,,,,,,,,,,,,,,,,,,,,305.0803883000044,305.084506199928,305.6948369999882,305.68140739994124,1,305.6932884999551,305.6948369999882,305.6948369999882,306.1844143999042,306.1844143999042,306.18047749996185,None,306.1805112999864,353.0390257999534,space,,,306.1844143999042,336.172043700004,336.172043700004,336.172043700004,16.8656970000593,None,,,,,010,001,2026-01-28_16h55.09.607,NESC3137_EEG_experiment,,2025.2.4,238.34890995554127,2026-01-28 16h55.10.142300 -0400,
201,0,201,None,None,,,,,201,0,201,0,353.0424869999988,,,,,,,,,,,,,,,,,,,,353.0392060999293,353.0424869999988,353.9893468999071,353.9759616999654,1,353.9879637999693,353.9893468999071,353.9893468999071,354.4759155999636,354.4759155999636,354.47186099993996,None,354.47189679997973,354.471913699992,None,,,,,,,,,,,,,010,001,2026-01-28_16h55.09.607,NESC3137_EEG_experiment,,2025.2.4,238.34890995554127,2026-01-28 16h55.10.142300 -0400,
202,0,202,up,None,0.47910230001434684,None,,,202,0,202,0,354.4759155999636,,,,,,,,,,,,,,,,,,,,354.4720682000043,354.4759155999636,355.38309589994606,355.3675677999854,1,355.38113759993576,355.38309589994606,355.38309589994606,355.87166019994766,355.87166019994766,355.8675217999844,up,355.86755759990774,355.86757309990935,None,0.47910230001434684,None,,,,,,,,,,,010,001,2026-01-28_16h55.09.607,NESC3137_EEG_experiment,,2025.2.4,238.34890995554127,2026-01-28 16h55.10.142300 -0400,
203,0,203,up,None,0.3617041000397876,None,,,203,0,203,0,355.87166019994766,,,,,,,,,,,,,,,,,,,,355.8676792999031,355.87166019994766,356.46797629992943,356.4551411999855,1,356.46648679999635,356.46797629992943,356.46797629992943,356.95533659996,356.95533659996,356.9509436999215,up,356.950981699978,356.95100329990964,None,0.3617041000397876,None,,,,,,,,,,,010,001,2026-01-28_16h55.09.607,NESC3137_EEG_experiment,,2025.2.4,238.34890995554127,2026-01-28 16h55.10.142300 -0400,
204,0,204,up,None,0.38328190008178353,None,,,204,0,204,0,356.95533659996,,,,,,,,,,,,,,,,,,,,356.9511200999841,356.95533659996,357.80677599995397,357.79270569991786,2,357.80527729995083,357.80677599995397,357.80677599995397,358.2966252999613,358.2966252999613,358.29280689998996,up,358.29284779995214,358.2928654999705,None,0.38328190008178353,None,,,,,,,,,,,010,001,2026-01-28_16h55.09.607,NESC3137_EEG_experiment,,2025.2.4,238.34890995554127,2026-01-28 16h55.10.142300 -0400,
205,0,205,None,None,,,,,205,0,205,0,358.2966252999613,,,,,,,,,,,,,,,,,,,,358.29298799997196,358.2966252999613,359.00716629996896,358.9934150999179,1,359.0058491999516,359.00716629996896,359.00716629996896,359.4966379000107,359.4966379000107,359.49252269999124,None,359.492556400015,359.4925737999147,None,,,,,,,,,,,,,010,001,2026-01-28_16h55.09.607,NESC3137_EEG_experiment,,2025.2.4,238.34890995554127,2026-01-28 16h55.10.142300 -0400,
206,0,206,up,None,0.37068719998933375,0.07565950008574873,,,206,0,206,0,359.4966379000107,,,,,,,,,,,,,,,,,,,,359.49268949998077,359.4966379000107,360.45284859999083,360.4388171999017,2,360.45113159995526,360.45284859999083,360.45284859999083,360.9427947999211,360.9427947999211,360.93868819996715,up,360.9387286999263,360.9387467999477,None,0.37068719998933375,0.07565950008574873,,,,,,,,,,,010,001,2026-01-28_16h55.09.607,NESC3137_EEG_experiment,,2025.2.4,238.34890995554127,2026-01-28 16h55.10.142300 -0400,
207,0,207,up,None,0.4596680999966338,None,,,207,0,207,0,360.9427947999211,,,,,,,,,,,,,,,,,,,,360.93887889990583,360.9427947999211,361.66676549997646,361.64674659993034,1,361.664524099906,361.66676549997646,361.66676549997646,,,362.15119409991894,up,362.1512448999565,362.1512677000137,None,0.4596680999966338,None,,,,,,,,,,,010,001,2026-01-28_16h55.09.607,NESC3137_EEG_experiment,,2025.2.4,238.34890995554127,2026-01-28 16h55.10.142300 -0400,
208,0,208,None,None,,,,,208,0,208,0,362.1553366999142,,,,,,,,,,,,,,,,,,,,362.151480600005,362.1553366999142,362.8194143999135,362.80535099992994,2,362.8180860999273,362.8194143999135,362.8194143999135,363.30904480000027,363.30904480000027,363.3052217999939,None,363.3052561999066,363.3052732999204,None,,,,,,,,,,,,,010,001,2026-01-28_16h55.09.607,NESC3137_EEG_experiment,,2025.2.4,238.34890995554127,2026-01-28 16h55.10.142300 -0400,
209,0,209,down,None,0.3938526000129059,None,,,209,0,209,0,363.30904480000027,,,,,,,,,,,,,,,,,,,,363.30538829998113,363.30904480000027,364.137152899988,364.1220380999148,2,364.13587210001424,364.137152899988,364.137152899988,364.62583679996897,364.62583679996897,364.62203869991936,down,364.62207889999263,364.6220961000072,None,0.3938526000129059,None,,,,,,,,,,,010,001,2026-01-28_16h55.09.607,NESC3137_EEG_experiment,,2025.2.4,238.34890995554127,2026-01-28 16h55.10.142300 -0400,
210,0,210,down,None,0.28512310003861785,0.11067349999211729,,,210,0,210,0,364.62583679996897,,,,,,,,,,,,,,,,,,,,364.6222155999858,364.62583679996897,365.1699582999572,365.15524779993575,1,365.16806589998305,365.1699582999572,365.1699582999572,,,365.65536779991817,down,365.6554129999131,365.6554325999459,None,0.28512310003861785,0.11067349999211729,,,,,,,,,,,010,001,2026-01-28_16h55.09.607,NESC3137_EEG_experiment,,2025.2.4,238.34890995554127,2026-01-28 16h55.10.142300 -0400,
211,0,211,down,None,0.40901910001412034,None,,,211,0,211,0,365.6592917999951,,,,,,,,,,,,,,,,,,,,365.6555612999946,365.6592917999951,366.3950719999848,366.38046359992586,2,366.3935692999512,366.3950719999848,366.3950719999848,366.88530520000495,366.88530520000495,366.8803733999375,down,366.8804155999096,366.88043409993406,None,0.40901910001412034,None,,,,,,,,,,,010,001,2026-01-28_16h55.09.607,NESC3137_EEG_experiment,,2025.2.4,238.34890995554127,2026-01-28 16h55.10.142300 -0400,
212,0,212,None,None,,,,,212,0,212,0,366.88530520000495,,,,,,,,,,,,,,,,,,,,366.88057439995464,366.88530520000495,367.8409124999307,367.825916999951,2,367.8394578999141,367.8409124999307,367.8409124999307,368.3302627999801,368.3302627999801,368.32592410000507,None,368.32595749991015,368.32597429992165,None,,,,,,,,,,,,,010,001,2026-01-28_16h55.09.607,NESC3137_EEG_experiment,,2025.2.4,238.34890995554127,2026-01-28 16h55.10.142300 -0400,
213,0,213,None,None,,,,,213,0,213,0,368.3302627999801,,,,,,,,,,,,,,,,,,,,368.3260845999466,368.3302627999801,369.16939679998904,369.1554145999253,1,369.16806799999904,369.16939679998904,369.16939679998904,369.6594268999761,369.6594268999761,369.655333600007,None,369.65536889992654,369.6553867999464,None,,,,,,,,,,,,,010,001,2026-01-28_16h55.09.607,NESC3137_EEG_experiment,,2025.2.4,238.34890995554127,2026-01-28 16h55.10.142300 -0400,
214,0,214,up,None,0.39693990000523627,None,,,214,0,214,0,369.6594268999761,,,,,,,,,,,,,,,,,,,,369.6555157999974,369.6594268999761,370.50148569990415,370.4885508000152,1,370.5001357999863,370.50148569990415,370.50148569990415,370.9884842999745,370.9884842999745,370.9844799999846,up,370.9845198999392,370.9845366999507,None,0.39693990000523627,None,,,,,,,,,,,010,001,2026-01-28_16h55.09.607,NESC3137_EEG_experiment,,2025.2.4,238.34890995554127,2026-01-28 16h55.10.142300 -0400,
215,0,215,None,None,,,,,215,0,215,0,370.9884842999745,,,,,,,,,,,,,,,,,,,,370.98466849990655,370.9884842999745,371.70761769998353,371.693046499975,2,371.7063413999276,371.70761769998353,371.70761769998353,372.1965989000164,372.1965989000164,372.1927269999869,None,372.1927601000061,372.1927765000146,None,,,,,,,,,,,,,010,001,2026-01-28_16h55.09.607,NESC3137_EEG_experiment,,2025.2.4,238.34890995554127,2026-01-28 16h55.10.142300 -0400,
216,0,216,None,None,,,,,216,0,216,0,372.1965989000164,,,,,,,,,,,,,,,,,,,,372.19289169996046,372.1965989000164,372.919756499934,372.90574329998344,2,372.9182344999863,372.919756499934,372.919756499934,373.40948339994065,373.40948339994065,373.40536809992045,None,373.40540459996555,373.40542219998315,None,,,,,,,,,,,,,010,001,2026-01-28_16h55.09.607,NESC3137_EEG_experiment,,2025.2.4,238.34890995554127,2026-01-28 16h55.10.142300 -0400,
217,0,217,None,None,,,,,217,0,217,0,373.40948339994065,,,,,,,,,,,,,,,,,,,,373.4055446999846,373.40948339994065,374.1290619999636,374.11410080001224,1,374.127496699919,374.1290619999636,374.1290619999636,374.61734180001076,374.61734180001076,374.61351599998306,None,374.61354920000304,374.61356540001,None,,,,,,,,,,,,,010,001,2026-01-28_16h55.09.607,NESC3137_EEG_experiment,,2025.2.4,238.34890995554127,2026-01-28 16h55.10.142300 -0400,
218,0,218,None,None,,,,,218,0,218,0,374.61734180001076,,,,,,,,,,,,,,,,,,,,374.6136798999505,374.61734180001076,375.2388209999772,375.22214359999634,1,375.2361526999157,375.2388209999772,375.2388209999772,375.7258111999836,375.7258111999836,375.72198159992695,None,375.72201829997357,375.72203599999193,None,,,,,,,,,,,,,010,001,2026-01-28_16h55.09.607,NESC3137_EEG_experiment,,2025.2.4,238.34890995554127,2026-01-28 16h55.10.142300 -0400,
219,0,219,None,None,,,,,219,0,219,0,375.7258111999836,,,,,,,,,,,,,,,,,,,,375.7221615000162,375.7258111999836,376.5779671999626,376.56336269993335,2,376.5766046999488,376.5779671999626,376.5779671999626,,,377.06367730000056,None,377.0637551000109,377.0637971999822,None,,,,,,,,,,,,,010,001,2026-01-28_16h55.09.607,NESC3137_EEG_experiment,,2025.2.4,238.34890995554127,2026-01-28 16h55.10.142300 -0400,
220,0,220,up,None,0.30656480009201914,0.1266241999110207,,,220,0,220,0,377.0674820999848,,,,,,,,,,,,,,,,,,,,377.06395669991616,377.0674820999848,377.7115512000164,377.6973134999862,2,377.7103315999266,377.7115512000164,377.7115512000164,378.2007422999013,378.2007422999013,378.19739409990143,up,378.1974319999572,378.1974485999672,None,0.30656480009201914,0.1266241999110207,,,,,,,,,,,010,001,2026-01-28_16h55.09.607,NESC3137_EEG_experiment,,2025.2.4,238.34890995554127,2026-01-28 16h55.10.142300 -0400,
221,0,221,None,None,,,,,221,0,221,0,378.2007422999013,,,,,,,,,,,,,,,,,,,,378.19758679997176,378.2007422999013,379.1579655999085,379.14265950000845,2,379.1562297999626,379.1579655999085,379.1579655999085,379.64674120000564,379.64674120000564,379.642782800016,None,379.64287589991,379.64289439993445,None,,,,,,,,,,,,,010,001,2026-01-28_16h55.09.607,NESC3137_EEG_experiment,,2025.2.4,238.34890995554127,2026-01-28 16h55.10.142300 -0400,
222,0,222,down,None,0.39663720002863556,None,,,222,0,222,0,379.64674120000564,,,,,,,,,,,,,,,,,,,,379.6430199999595,379.64674120000564,380.5771971999202,380.5635717000114,2,380.57593599997927,380.5771971999202,380.5771971999202,381.0674829999916,381.0674829999916,381.0636461999966,down,381.06368819996715,381.0637061999878,None,0.39663720002863556,None,,,,,,,,,,,010,001,2026-01-28_16h55.09.607,NESC3137_EEG_experiment,,2025.2.4,238.34890995554127,2026-01-28 16h55.10.142300 -0400,
223,0,223,down,None,0.34709399996791035,None,,,223,0,223,0,381.0674829999916,,,,,,,,,,,,,,,,,,,,381.0638349999208,381.0674829999916,381.7867734999163,381.77200009999797,2,381.78453979990445,381.7867734999163,381.7867734999163,382.27612809999846,382.27612809999846,382.2719234999968,down,382.2719634999521,382.2719808999682,None,0.34709399996791035,None,,,,,,,,,,,010,001,2026-01-28_16h55.09.607,NESC3137_EEG_experiment,,2025.2.4,238.34890995554127,2026-01-28 16h55.10.142300 -0400,
224,0,224,down,None,0.3804661000613123,None,,,224,0,224,0,382.27612809999846,,,,,,,,,,,,,,,,,,,,382.27213389996905,382.27612809999846,382.80919850000646,382.79285909992177,2,382.8067743999418,382.80919850000646,382.80919850000646,383.29663399991114,383.29663399991114,383.2929265999701,down,383.29296629992314,383.29298439994454,None,0.3804661000613123,None,,,,,,,,,,,010,001,2026-01-28_16h55.09.607,NESC3137_EEG_experiment,,2025.2.4,238.34890995554127,2026-01-28 16h55.10.142300 -0400,
