thisN,thisTrialN,thisRepN,key_resp_3.keys,key_resp_4.keys,key_resp_3.rt,key_resp_3.duration,key_resp_4.rt,key_resp_4.duration,trials.thisRepN,trials.thisTrialN,trials.thisN,trials.thisIndex,thisRow.t,notes,lsl_stream.started,lsl_stream.stopped,setup.started,setup.stopped,welcome.started,welcomeimg.started,key_resp.started,welcome.stopped,key_resp.keys,key_resp.rt,key_resp.duration,instruction.started,instructionimg.started,key_resp_2.started,instruction.stopped,key_resp_2.keys,key_resp_2.rt,key_resp_2.duration,fixation.started,cross.started,cross.stopped,fixation.stopped,trigger,face.started,faceStim.started,key_resp_3.started,faceStim.stopped,key_resp_3.stopped,face.stopped,trials.key_resp_3.keys,break_2.started,break_2.stopped,trials.key_resp_4.keys,trials.key_resp_3.rt,trials.key_resp_3.duration,breakimg.started,break2img.started,key_resp_4.started,breakimg.stopped,trials.key_resp_4.rt,trials.key_resp_4.duration,end.started,finish.started,finish.stopped,end.stopped,participant,session,date,expName,expVersion,psychopyVersion,frameRate,expStart,
,,,,,,,,,,,,,,,0.008821500000522065,0.008910500000638422,,,,,,,,,,,,,,,,,,,,,,,,,,,,,,,,,,,,,,,,,,,,007,001,2026-01-28_15h59.42.276,NESC3137_EEG_experiment,,2025.1.1,59.9663468862097,2026-01-28 16h00.19.980177 -0400,
,,,,,,,,,,,,,,,,,0.008939199999986158,0.008978700000625395,,,,,,,,,,,,,,,,,,,,,,,,,,,,,,,,,,,,,,,,,,007,001,2026-01-28_15h59.42.276,NESC3137_EEG_experiment,,2025.1.1,59.9663468862097,2026-01-28 16h00.19.980177 -0400,
,,,,,,,,,,,,,,,,,,,0.009048500000062631,0.014707500000440632,0.014707500000440632,16.34239780000007,space,16.222434199999952,None,,,,,,,,,,,,,,,,,,,,,,,,,,,,,,,,,,,007,001,2026-01-28_15h59.42.276,NESC3137_EEG_experiment,,2025.1.1,59.9663468862097,2026-01-28 16h00.19.980177 -0400,
,,,,,,,,,,,,,,,,,,,,,,,,,,16.342439000000013,16.345682500000294,16.345682500000294,26.99632560000009,space,10.6433947000005,None,,,,,,,,,,,,,,,,,,,,,,,,,,,,007,001,2026-01-28_15h59.42.276,NESC3137_EEG_experiment,,2025.1.1,59.9663468862097,2026-01-28 16h00.19.980177 -0400,
0,0,0,None,None,,,,,0,0,0,0,27.012751900000694,,,,,,,,,,,,,,,,,,,,26.998557700000674,27.012751900000694,27.54581169999983,27.52992540000014,2,27.54216340000039,27.54581169999983,27.54581169999983,28.04609950000031,28.04609950000031,28.029576400000224,None,28.02961630000027,28.02964080000038,None,,,,,,,,,,,,,007,001,2026-01-28_15h59.42.276,NESC3137_EEG_experiment,,2025.1.1,59.9663468862097,2026-01-28 16h00.19.980177 -0400,
1,0,1,down,None,0.030881099999533035,0.15213980000044103,,,1,0,1,0,28.04609950000031,,,,,,,,,,,,,,,,,,,,28.029762400000436,28.04609950000031,28.846164999999928,28.829992900000434,2,28.843522099999973,28.846164999999928,28.846164999999928,29.3461084999999,29.3461084999999,29.329885000000104,down,29.329948000000513,29.329980700000306,None,0.030881099999533035,0.15213980000044103,,,,,,,,,,,007,001,2026-01-28_15h59.42.276,NESC3137_EEG_experiment,,2025.1.1,59.9663468862097,2026-01-28 16h00.19.980177 -0400,
2,0,2,None,None,,,,,2,0,2,0,29.3461084999999,,,,,,,,,,,,,,,,,,,,29.330191600000035,29.3461084999999,29.928767100000186,29.912881400000515,1,29.924733599999854,29.928767100000186,29.928767100000186,,,30.413125400000354,None,30.41319300000032,30.413229100000535,None,,,,,,,,,,,,,007,001,2026-01-28_15h59.42.276,NESC3137_EEG_experiment,,2025.1.1,59.9663468862097,2026-01-28 16h00.19.980177 -0400,
3,0,3,None,None,,,,,3,0,3,0,30.429516900000635,,,,,,,,,,,,,,,,,,,,30.41341730000022,30.429516900000635,31.129135700000006,31.112492700000075,2,31.124996000000465,31.129135700000006,31.129135700000006,,,31.612981199999922,None,31.61304310000014,31.61308199999985,None,,,,,,,,,,,,,007,001,2026-01-28_15h59.42.276,NESC3137_EEG_experiment,,2025.1.1,59.9663468862097,2026-01-28 16h00.19.980177 -0400,
4,0,4,up,None,0.24126710000018647,0.16806660000020202,,,4,0,4,0,31.629357300000265,,,,,,,,,,,,,,,,,,,,31.61328599999979,31.629357300000265,32.395726800000375,32.37949759999992,2,32.39194399999997,32.395726800000375,32.395726800000375,,,32.879778700000315,up,32.879862499999945,32.87990510000054,None,0.24126710000018647,0.16806660000020202,,,,,,,,,,,007,001,2026-01-28_15h59.42.276,NESC3137_EEG_experiment,,2025.1.1,59.9663468862097,2026-01-28 16h00.19.980177 -0400,
5,0,5,None,None,,,,,5,0,5,0,32.89622839999993,,,,,,,,,,,,,,,,,,,,32.8801282000004,32.89622839999993,33.82917030000044,33.81278850000035,1,33.82574310000018,33.82917030000044,33.82917030000044,34.32948690000012,34.32948690000012,34.312871400000404,None,34.312938699999904,34.312977700000374,None,,,,,,,,,,,,,007,001,2026-01-28_15h59.42.276,NESC3137_EEG_experiment,,2025.1.1,59.9663468862097,2026-01-28 16h00.19.980177 -0400,
6,0,6,None,None,,,,,6,0,6,0,34.32948690000012,,,,,,,,,,,,,,,,,,,,34.313168900000164,34.32948690000012,34.87920519999989,34.863168800000494,1,34.87549230000059,34.87920519999989,34.87920519999989,35.3793040999999,35.3793040999999,35.36308110000027,None,35.36313380000047,35.36316630000056,None,,,,,,,,,,,,,007,001,2026-01-28_15h59.42.276,NESC3137_EEG_experiment,,2025.1.1,59.9663468862097,2026-01-28 16h00.19.980177 -0400,
7,0,7,up,None,0.36757680000027904,None,,,7,0,7,0,35.3793040999999,,,,,,,,,,,,,,,,,,,,35.36336680000022,35.3793040999999,36.24546790000022,36.22982110000066,1,36.241660600000614,36.24546790000022,36.24546790000022,36.74627360000068,36.74627360000068,36.7298193000006,up,36.72987900000044,36.72991390000061,None,0.36757680000027904,None,,,,,,,,,,,007,001,2026-01-28_15h59.42.276,NESC3137_EEG_experiment,,2025.1.1,59.9663468862097,2026-01-28 16h00.19.980177 -0400,
8,0,8,up,None,0.382593999999699,None,,,8,0,8,0,36.74627360000068,,,,,,,,,,,,,,,,,,,,36.73011680000036,36.74627360000068,37.66251379999994,37.646394400000645,1,37.65805610000007,37.66251379999994,37.66251379999994,38.16273809999984,38.16273809999984,38.146496400000615,up,38.146559900000284,38.146596200000204,None,0.382593999999699,None,,,,,,,,,,,007,001,2026-01-28_15h59.42.276,NESC3137_EEG_experiment,,2025.1.1,59.9663468862097,2026-01-28 16h00.19.980177 -0400,
9,0,9,down,None,0.4329674000000523,None,,,9,0,9,0,38.16273809999984,,,,,,,,,,,,,,,,,,,,38.14677329999995,38.16273809999984,39.012095600000066,38.99620279999999,2,39.007359400000496,39.012095600000066,39.012095600000066,,,39.496510099999796,down,39.496581100000185,39.49660370000038,None,0.4329674000000523,None,,,,,,,,,,,007,001,2026-01-28_15h59.42.276,NESC3137_EEG_experiment,,2025.1.1,59.9663468862097,2026-01-28 16h00.19.980177 -0400,
10,0,10,up,None,0.4534427999997206,None,,,10,0,10,0,39.51302149999992,,,,,,,,,,,,,,,,,,,,39.496756300000015,39.51302149999992,40.4956071000006,40.47921730000053,1,40.49192360000052,40.4956071000006,40.4956071000006,,,40.979535000000396,up,40.97961600000053,40.97965230000045,None,0.4534427999997206,None,,,,,,,,,,,007,001,2026-01-28_15h59.42.276,NESC3137_EEG_experiment,,2025.1.1,59.9663468862097,2026-01-28 16h00.19.980177 -0400,
11,0,11,None,None,,,,,11,0,11,0,40.99596240000028,,,,,,,,,,,,,,,,,,,,40.979855300000054,40.99596240000028,41.77877400000034,41.76299720000043,2,41.77599590000045,41.77877400000034,41.77877400000034,42.279587699999865,42.279587699999865,42.26282010000068,None,42.26285860000007,42.26287649999995,None,,,,,,,,,,,,,007,001,2026-01-28_15h59.42.276,NESC3137_EEG_experiment,,2025.1.1,59.9663468862097,2026-01-28 16h00.19.980177 -0400,
12,0,12,up,None,0.38831540000046516,None,,,12,0,12,0,42.279587699999865,,,,,,,,,,,,,,,,,,,,42.26299800000015,42.279587699999865,42.92872460000035,42.91323139999986,1,42.9256249,42.92872460000035,42.92872460000035,43.42938910000066,43.42938910000066,43.41327319999982,up,43.41334240000015,43.41336300000057,None,0.38831540000046516,None,,,,,,,,,,,007,001,2026-01-28_15h59.42.276,NESC3137_EEG_experiment,,2025.1.1,59.9663468862097,2026-01-28 16h00.19.980177 -0400,
13,0,13,up,None,0.4116273999998157,None,,,13,0,13,0,43.42938910000066,,,,,,,,,,,,,,,,,,,,43.41349369999989,43.42938910000066,44.14544190000015,44.12970990000031,1,44.14214600000014,44.14544190000015,44.14544190000015,44.64612300000044,44.64612300000044,44.629775500000505,up,44.62983780000013,44.6298697000002,None,0.4116273999998157,None,,,,,,,,,,,007,001,2026-01-28_15h59.42.276,NESC3137_EEG_experiment,,2025.1.1,59.9663468862097,2026-01-28 16h00.19.980177 -0400,
14,0,14,None,None,,,,,14,0,14,0,44.64612300000044,,,,,,,,,,,,,,,,,,,,44.630084700000225,44.64612300000044,45.31261390000054,45.296397300000535,2,45.308276800000385,45.31261390000054,45.31261390000054,45.8129426000005,45.8129426000005,45.79609990000063,None,45.796152599999914,45.79618620000019,None,,,,,,,,,,,,,007,001,2026-01-28_15h59.42.276,NESC3137_EEG_experiment,,2025.1.1,59.9663468862097,2026-01-28 16h00.19.980177 -0400,
15,0,15,up,None,0.4310900999998921,None,,,15,0,15,0,45.8129426000005,,,,,,,,,,,,,,,,,,,,45.79637520000051,45.8129426000005,46.645942000000105,46.62981110000055,1,46.641247500000645,46.645942000000105,46.645942000000105,47.1460461000006,47.1460461000006,47.12973659999989,up,47.129777600000125,47.129795700000614,None,0.4310900999998921,None,,,,,,,,,,,007,001,2026-01-28_15h59.42.276,NESC3137_EEG_experiment,,2025.1.1,59.9663468862097,2026-01-28 16h00.19.980177 -0400,
16,0,16,None,None,,,,,16,0,16,0,47.1460461000006,,,,,,,,,,,,,,,,,,,,47.1299355000001,47.1460461000006,48.12908140000036,48.11324440000044,1,48.125671599999805,48.12908140000036,48.12908140000036,48.62973020000027,48.62973020000027,48.613288999999895,None,48.61333470000045,48.61335280000003,None,,,,,,,,,,,,,007,001,2026-01-28_15h59.42.276,NESC3137_EEG_experiment,,2025.1.1,59.9663468862097,2026-01-28 16h00.19.980177 -0400,
17,0,17,up,None,0.4621603999994477,None,,,17,0,17,0,48.62973020000027,,,,,,,,,,,,,,,,,,,,48.61348249999992,48.62973020000027,49.2789085000004,49.26292210000065,1,49.27586000000065,49.2789085000004,49.2789085000004,,,49.76316120000047,up,49.76323349999984,49.763258800000585,None,0.4621603999994477,None,,,,,,,,,,,007,001,2026-01-28_15h59.42.276,NESC3137_EEG_experiment,,2025.1.1,59.9663468862097,2026-01-28 16h00.19.980177 -0400,
18,0,18,None,None,,,,,18,0,18,0,49.779596800000036,,,,,,,,,,,,,,,,,,,,49.76341430000048,49.779596800000036,50.295534700000644,50.27959180000016,2,50.29133230000025,50.295534700000644,50.295534700000644,50.79563539999981,50.79563539999981,50.77970540000024,None,50.77976639999997,50.77979950000008,None,,,,,,,,,,,,,007,001,2026-01-28_15h59.42.276,NESC3137_EEG_experiment,,2025.1.1,59.9663468862097,2026-01-28 16h00.19.980177 -0400,
19,0,19,up,None,0.39745270000003075,None,,,19,0,19,0,50.79563539999981,,,,,,,,,,,,,,,,,,,,50.77999210000053,50.79563539999981,51.695524300000216,51.67979770000056,1,51.69170310000027,51.695524300000216,51.695524300000216,52.19631010000012,52.19631010000012,52.17988770000011,up,52.17995040000005,52.17998280000029,None,0.39745270000003075,None,,,,,,,,,,,007,001,2026-01-28_15h59.42.276,NESC3137_EEG_experiment,,2025.1.1,59.9663468862097,2026-01-28 16h00.19.980177 -0400,
20,0,20,None,None,,,,,20,0,20,0,52.19631010000012,,,,,,,,,,,,,,,,,,,,52.18017280000004,52.19631010000012,52.91205530000025,52.896390700000666,1,52.90734440000051,52.91205530000025,52.91205530000025,53.412919899999906,53.412919899999906,53.396508200000426,None,53.39656980000018,53.39660340000046,None,,,,,,,,,,,,,007,001,2026-01-28_15h59.42.276,NESC3137_EEG_experiment,,2025.1.1,59.9663468862097,2026-01-28 16h00.19.980177 -0400,
21,0,21,None,None,,,,,21,0,21,0,53.412919899999906,,,,,,,,,,,,,,,,,,,,53.396797600000355,53.412919899999906,54.11211600000024,54.096219900000506,2,54.10875670000041,54.11211600000024,54.11211600000024,54.61257079999996,54.61257079999996,54.59616129999995,None,54.59621550000065,54.59625050000068,None,,,,,,,,,,,,,007,001,2026-01-28_15h59.42.276,NESC3137_EEG_experiment,,2025.1.1,59.9663468862097,2026-01-28 16h00.19.980177 -0400,
22,0,22,None,None,,,,,22,0,22,0,54.61257079999996,,,,,,,,,,,,,,,,,,,,54.596437799999876,54.61257079999996,55.329223900000216,55.31320930000038,2,55.32504490000065,55.329223900000216,55.329223900000216,55.8295420000004,55.8295420000004,55.81291670000064,None,55.81296960000054,55.81300240000019,None,,,,,,,,,,,,,007,001,2026-01-28_15h59.42.276,NESC3137_EEG_experiment,,2025.1.1,59.9663468862097,2026-01-28 16h00.19.980177 -0400,
23,0,23,None,None,,,,,23,0,23,0,55.8295420000004,,,,,,,,,,,,,,,,,,,,55.81318689999989,55.8295420000004,56.3620977999999,56.345943199999965,1,56.35817709999992,56.3620977999999,56.3620977999999,56.862644400000136,56.862644400000136,56.84578440000041,None,56.84584720000021,56.84588059999987,None,,,,,,,,,,,,,007,001,2026-01-28_15h59.42.276,NESC3137_EEG_experiment,,2025.1.1,59.9663468862097,2026-01-28 16h00.19.980177 -0400,
24,0,24,up,None,0.25588820000029955,0.15998550000040268,,,24,0,24,0,56.862644400000136,,,,,,,,,,,,,,,,,,,,56.846093799999835,56.862644400000136,57.42922330000056,57.413165500000105,2,57.42516930000056,57.42922330000056,57.42922330000056,57.929460299999846,57.929460299999846,57.91317530000015,up,57.91323590000047,57.91327850000016,None,0.25588820000029955,0.15998550000040268,,,,,,,,,,,007,001,2026-01-28_15h59.42.276,NESC3137_EEG_experiment,,2025.1.1,59.9663468862097,2026-01-28 16h00.19.980177 -0400,
25,0,25,up,None,0.4101634999997259,None,,,25,0,25,0,57.929460299999846,,,,,,,,,,,,,,,,,,,,57.91353530000015,57.929460299999846,58.57892340000035,58.5629828000001,2,58.57531830000062,58.57892340000035,58.57892340000035,59.07944240000052,59.07944240000052,59.06319200000053,up,59.06326580000041,59.063299200000074,None,0.4101634999997259,None,,,,,,,,,,,007,001,2026-01-28_15h59.42.276,NESC3137_EEG_experiment,,2025.1.1,59.9663468862097,2026-01-28 16h00.19.980177 -0400,
26,0,26,None,None,,,,,26,0,26,0,59.07944240000052,,,,,,,,,,,,,,,,,,,,59.06349880000016,59.07944240000052,59.59594190000007,59.579671399999825,2,59.59241540000039,59.59594190000007,59.59594190000007,60.096153100000265,60.096153100000265,60.07974740000009,None,60.07980140000018,60.07983520000016,None,,,,,,,,,,,,,007,001,2026-01-28_15h59.42.276,NESC3137_EEG_experiment,,2025.1.1,59.9663468862097,2026-01-28 16h00.19.980177 -0400,
27,0,27,down,None,0.42527810000046884,None,,,27,0,27,0,60.096153100000265,,,,,,,,,,,,,,,,,,,,60.07999440000003,60.096153100000265,60.795793799999956,60.77996280000025,2,60.792918900000586,60.795793799999956,60.795793799999956,61.295879799999966,61.295879799999966,61.279204800000116,down,61.279265099999975,61.279297099999894,None,0.42527810000046884,None,,,,,,,,,,,007,001,2026-01-28_15h59.42.276,NESC3137_EEG_experiment,,2025.1.1,59.9663468862097,2026-01-28 16h00.19.980177 -0400,
28,0,28,down,None,0.38844630000039615,None,,,28,0,28,0,61.295879799999966,,,,,,,,,,,,,,,,,,,,61.2794885000003,61.295879799999966,61.91250620000028,61.89629530000002,2,61.90889570000036,61.91250620000028,61.91250620000028,62.412846700000046,62.412846700000046,62.39570960000037,down,62.39575049999985,62.39576970000053,None,0.38844630000039615,None,,,,,,,,,,,007,001,2026-01-28_15h59.42.276,NESC3137_EEG_experiment,,2025.1.1,59.9663468862097,2026-01-28 16h00.19.980177 -0400,
29,0,29,down,None,0.42515949999960867,None,,,29,0,29,0,62.412846700000046,,,,,,,,,,,,,,,,,,,,62.395891799999845,62.412846700000046,63.19590590000007,63.17972590000045,2,63.1914155000004,63.19590590000007,63.19590590000007,63.69588660000045,63.69588660000045,63.67953149999994,down,63.679593800000475,63.67962830000033,None,0.42515949999960867,None,,,,,,,,,,,007,001,2026-01-28_15h59.42.276,NESC3137_EEG_experiment,,2025.1.1,59.9663468862097,2026-01-28 16h00.19.980177 -0400,
30,0,30,None,None,,,,,30,0,30,0,63.69588660000045,,,,,,,,,,,,,,,,,,,,63.679817600000206,63.69588660000045,64.5456592999999,64.52976360000048,1,64.54187400000046,64.5456592999999,64.5456592999999,65.04596610000044,65.04596610000044,65.02984840000045,None,65.02990150000005,65.0299372999998,None,,,,,,,,,,,,,007,001,2026-01-28_15h59.42.276,NESC3137_EEG_experiment,,2025.1.1,59.9663468862097,2026-01-28 16h00.19.980177 -0400,
31,0,31,None,None,,,,,31,0,31,0,65.04596610000044,,,,,,,,,,,,,,,,,,,,65.03013330000067,65.04596610000044,65.77873200000067,65.76302620000024,2,65.77519740000025,65.77873200000067,65.77873200000067,,,66.26321540000026,None,66.2632781000002,66.26330030000008,None,,,,,,,,,,,,,007,001,2026-01-28_15h59.42.276,NESC3137_EEG_experiment,,2025.1.1,59.9663468862097,2026-01-28 16h00.19.980177 -0400,
32,0,32,up,None,0.40949430000000575,None,,,32,0,32,0,66.27935890000026,,,,,,,,,,,,,,,,,,,,66.26345700000002,66.27935890000026,67.19547390000025,67.17965230000027,1,67.1920839000004,67.19547390000025,67.19547390000025,67.69626130000051,67.69626130000051,67.67966080000042,up,67.6797172000006,67.67974709999999,None,0.40949430000000575,None,,,,,,,,,,,007,001,2026-01-28_15h59.42.276,NESC3137_EEG_experiment,,2025.1.1,59.9663468862097,2026-01-28 16h00.19.980177 -0400,
33,0,33,None,None,,,,,33,0,33,0,67.69626130000051,,,,,,,,,,,,,,,,,,,,67.67992390000018,67.69626130000051,68.31261300000006,68.29649550000067,1,68.30832250000003,68.31261300000006,68.31261300000006,68.81251229999998,68.81251229999998,68.79570630000035,None,68.79574540000067,68.7957637999998,None,,,,,,,,,,,,,007,001,2026-01-28_15h59.42.276,NESC3137_EEG_experiment,,2025.1.1,59.9663468862097,2026-01-28 16h00.19.980177 -0400,
34,0,34,None,None,,,,,34,0,34,0,68.81251229999998,,,,,,,,,,,,,,,,,,,,68.7958849000006,68.81251229999998,69.3289722999998,69.3130430000001,1,69.32549930000005,69.3289722999998,69.3289722999998,69.82954550000068,69.82954550000068,69.81323979999979,None,69.81329960000039,69.81333280000035,None,,,,,,,,,,,,,007,001,2026-01-28_15h59.42.276,NESC3137_EEG_experiment,,2025.1.1,59.9663468862097,2026-01-28 16h00.19.980177 -0400,
35,0,35,up,None,0.2476131000003079,0.1521351000001232,,,35,0,35,0,69.82954550000068,,,,,,,,,,,,,,,,,,,,69.8135342000005,69.82954550000068,70.6453988000003,70.62961499999983,2,70.64259000000038,70.6453988000003,70.6453988000003,71.14605720000054,71.14605720000054,71.12963130000026,up,71.12967610000032,71.12969560000056,None,0.2476131000003079,0.1521351000001232,,,,,,,,,,,007,001,2026-01-28_15h59.42.276,NESC3137_EEG_experiment,,2025.1.1,59.9663468862097,2026-01-28 16h00.19.980177 -0400,
36,0,36,up,None,0.37219509999977163,None,,,36,0,36,0,71.14605720000054,,,,,,,,,,,,,,,,,,,,71.12982340000053,71.14605720000054,72.12891029999992,72.11243240000022,1,72.12542480000047,72.12891029999992,72.12891029999992,,,72.61311010000009,up,72.61316720000013,72.61318970000048,None,0.37219509999977163,None,,,,,,,,,,,007,001,2026-01-28_15h59.42.276,NESC3137_EEG_experiment,,2025.1.1,59.9663468862097,2026-01-28 16h00.19.980177 -0400,
37,0,37,up,None,0.4378338000005897,None,,,37,0,37,0,72.62967939999999,,,,,,,,,,,,,,,,,,,,72.61332730000049,72.62967939999999,73.27912710000055,73.26331949999985,1,73.27612860000045,73.27912710000055,73.27912710000055,73.77940330000001,73.77940330000001,73.76287450000018,up,73.76292230000035,73.7629420000003,None,0.4378338000005897,None,,,,,,,,,,,007,001,2026-01-28_15h59.42.276,NESC3137_EEG_experiment,,2025.1.1,59.9663468862097,2026-01-28 16h00.19.980177 -0400,
38,0,38,None,None,,,,,38,0,38,0,73.77940330000001,,,,,,,,,,,,,,,,,,,,73.76306810000005,73.77940330000001,74.49549329999991,74.47959499999979,2,74.49110670000027,74.49549329999991,74.49549329999991,74.99633510000058,74.99633510000058,74.97970179999993,None,74.97973940000065,74.9797580000004,None,,,,,,,,,,,,,007,001,2026-01-28_15h59.42.276,NESC3137_EEG_experiment,,2025.1.1,59.9663468862097,2026-01-28 16h00.19.980177 -0400,
39,0,39,None,None,,,,,39,0,39,0,74.99633510000058,,,,,,,,,,,,,,,,,,,,74.97988320000059,74.99633510000058,75.61220440000034,75.5961900000002,1,75.6086507,75.61220440000034,75.61220440000034,76.11270180000065,76.11270180000065,76.09618440000031,None,76.09623350000038,76.09626670000034,None,,,,,,,,,,,,,007,001,2026-01-28_15h59.42.276,NESC3137_EEG_experiment,,2025.1.1,59.9663468862097,2026-01-28 16h00.19.980177 -0400,
40,0,40,None,None,,,,,40,0,40,0,76.11270180000065,,,,,,,,,,,,,,,,,,,,76.09644060000028,76.11270180000065,77.0621842999999,77.04617909999979,1,77.05880080000043,77.0621842999999,77.0621842999999,77.56237450000026,77.56237450000026,77.54582750000009,None,77.54588160000003,77.54591940000046,None,,,,,,,,,,,,,007,001,2026-01-28_15h59.42.276,NESC3137_EEG_experiment,,2025.1.1,59.9663468862097,2026-01-28 16h00.19.980177 -0400,
41,0,41,up,None,0.3541912999999113,None,,,41,0,41,0,77.56237450000026,,,,,,,,,,,,,,,,,,,,77.54610730000059,77.56237450000026,78.37874800000009,78.36243370000011,1,78.37408460000006,78.37874800000009,78.37874800000009,,,78.86286840000048,up,78.86292560000038,78.8629461999999,None,0.3541912999999113,None,,,,,,,,,,,007,001,2026-01-28_15h59.42.276,NESC3137_EEG_experiment,,2025.1.1,59.9663468862097,2026-01-28 16h00.19.980177 -0400,
42,0,42,None,None,,,,,42,0,42,0,78.87933580000026,,,,,,,,,,,,,,,,,,,,78.8630849000001,78.87933580000026,79.87909339999987,79.86312660000021,2,79.87591659999998,79.87909339999987,79.87909339999987,80.37924480000038,80.37924480000038,80.36315360000026,None,80.36320570000044,80.36323810000067,None,,,,,,,,,,,,,007,001,2026-01-28_15h59.42.276,NESC3137_EEG_experiment,,2025.1.1,59.9663468862097,2026-01-28 16h00.19.980177 -0400,
43,0,43,None,None,,,,,43,0,43,0,80.37924480000038,,,,,,,,,,,,,,,,,,,,80.36343140000008,80.37924480000038,80.89579790000062,80.87958560000061,2,80.89119440000013,80.89579790000062,80.89579790000062,81.39596960000017,81.39596960000017,81.37910370000009,None,81.3791554999998,81.37919160000001,None,,,,,,,,,,,,,007,001,2026-01-28_15h59.42.276,NESC3137_EEG_experiment,,2025.1.1,59.9663468862097,2026-01-28 16h00.19.980177 -0400,
44,0,44,up,None,0.41048330000012356,None,,,44,0,44,0,81.39596960000017,,,,,,,,,,,,,,,,,,,,81.3793770000002,81.39596960000017,82.36250930000006,82.34649030000037,1,82.35888260000047,82.36250930000006,82.36250930000006,82.8627421000001,82.8627421000001,82.84642020000047,up,82.84647790000054,82.84650630000033,None,0.41048330000012356,None,,,,,,,,,,,007,001,2026-01-28_15h59.42.276,NESC3137_EEG_experiment,,2025.1.1,59.9663468862097,2026-01-28 16h00.19.980177 -0400,
45,0,45,None,None,,,,,45,0,45,0,82.8627421000001,,,,,,,,,,,,,,,,,,,,82.8466782000005,82.8627421000001,83.81218239999998,83.79635830000007,1,83.81009890000041,83.81218239999998,83.81218239999998,84.31220080000003,84.31220080000003,84.29653250000047,None,84.29658710000058,84.29661990000022,None,,,,,,,,,,,,,007,001,2026-01-28_15h59.42.276,NESC3137_EEG_experiment,,2025.1.1,59.9663468862097,2026-01-28 16h00.19.980177 -0400,
46,0,46,None,None,,,,,46,0,46,0,84.31220080000003,,,,,,,,,,,,,,,,,,,,84.29681530000016,84.31220080000003,84.91198789999999,84.89645480000036,1,84.90927280000051,84.91198789999999,84.91198789999999,85.41274870000052,85.41274870000052,85.39642370000001,None,85.39647370000057,85.39649330000066,None,,,,,,,,,,,,,007,001,2026-01-28_15h59.42.276,NESC3137_EEG_experiment,,2025.1.1,59.9663468862097,2026-01-28 16h00.19.980177 -0400,
47,0,47,None,None,,,,,47,0,47,0,85.41274870000052,,,,,,,,,,,,,,,,,,,,85.3966433000005,85.41274870000052,86.26243140000042,86.24629199999981,2,86.25879010000062,86.26243140000042,86.26243140000042,86.76277970000046,86.76277970000046,86.74635930000022,None,86.74640610000006,86.7464245000001,None,,,,,,,,,,,,,007,001,2026-01-28_15h59.42.276,NESC3137_EEG_experiment,,2025.1.1,59.9663468862097,2026-01-28 16h00.19.980177 -0400,
48,0,48,None,None,,,,,48,0,48,0,86.76277970000046,,,,,,,,,,,,,,,,,,,,86.74655770000027,86.76277970000046,87.56208409999999,87.54585170000064,2,87.5572559000002,87.56208409999999,87.56208409999999,,,88.04632459999993,None,88.0463905000006,88.04643290000058,None,,,,,,,,,,,,,007,001,2026-01-28_15h59.42.276,NESC3137_EEG_experiment,,2025.1.1,59.9663468862097,2026-01-28 16h00.19.980177 -0400,
49,0,49,None,None,,,,,49,0,49,0,88.06231430000025,,,,,,,,,,,,,,,,,,,,88.04663840000012,88.06231430000025,88.5787919000004,88.56241800000043,1,88.57362310000008,88.5787919000004,88.5787919000004,,,89.06302050000068,None,89.06308220000028,89.0631198000001,None,,,,,,,,,,,,,007,001,2026-01-28_15h59.42.276,NESC3137_EEG_experiment,,2025.1.1,59.9663468862097,2026-01-28 16h00.19.980177 -0400,
50,0,50,None,None,,,,,50,0,50,0,89.07948550000037,,,,,,,,,,,,,,,,,,,,89.06331649999993,89.07948550000037,89.97874430000047,89.96302420000029,2,89.97461720000047,89.97874430000047,89.97874430000047,90.47883009999987,90.47883009999987,90.46292989999984,None,90.46298240000033,90.46301519999997,None,,,,,,,,,,,,,007,001,2026-01-28_15h59.42.276,NESC3137_EEG_experiment,,2025.1.1,59.9663468862097,2026-01-28 16h00.19.980177 -0400,
51,0,51,up,None,0.4340573999998014,None,,,51,0,51,0,90.47883009999987,,,,,,,,,,,,,,,,,,,,90.46320540000033,90.47883009999987,91.37922930000059,91.36294970000017,1,91.3757357000004,91.37922930000059,91.37922930000059,,,91.86310310000044,up,91.86317440000039,91.86320440000054,None,0.4340573999998014,None,,,,,,,,,,,007,001,2026-01-28_15h59.42.276,NESC3137_EEG_experiment,,2025.1.1,59.9663468862097,2026-01-28 16h00.19.980177 -0400,
52,0,52,None,None,,,,,52,0,52,0,91.87880649999988,,,,,,,,,,,,,,,,,,,,91.8634034000006,91.87880649999988,92.62923190000038,92.61310820000017,1,92.62416670000039,92.62923190000038,92.62923190000038,93.12935340000058,93.12935340000058,93.11291710000023,None,93.11297210000066,93.11300430000028,None,,,,,,,,,,,,,007,001,2026-01-28_15h59.42.276,NESC3137_EEG_experiment,,2025.1.1,59.9663468862097,2026-01-28 16h00.19.980177 -0400,
53,0,53,None,None,,,,,53,0,53,0,93.12935340000058,,,,,,,,,,,,,,,,,,,,93.11319689999982,93.12935340000058,93.73443810000026,93.71319230000063,1,93.73206149999987,93.73443810000026,93.73443810000026,,,94.22973150000053,None,94.22978450000028,94.22980840000037,None,,,,,,,,,,,,,007,001,2026-01-28_15h59.42.276,NESC3137_EEG_experiment,,2025.1.1,59.9663468862097,2026-01-28 16h00.19.980177 -0400,
54,0,54,None,None,,,,,54,0,54,0,94.24617550000039,,,,,,,,,,,,,,,,,,,,94.22994830000061,94.24617550000039,94.92886710000039,94.91272320000007,1,94.92439360000026,94.92886710000039,94.92886710000039,95.42939990000013,95.42939990000013,95.41289620000043,None,95.41295249999985,95.41298670000015,None,,,,,,,,,,,,,007,001,2026-01-28_15h59.42.276,NESC3137_EEG_experiment,,2025.1.1,59.9663468862097,2026-01-28 16h00.19.980177 -0400,
55,0,55,None,None,,,,,55,0,55,0,95.42939990000013,,,,,,,,,,,,,,,,,,,,95.41317230000004,95.42939990000013,96.21208560000014,96.19648229999984,2,96.20870560000003,96.21208560000014,96.21208560000014,,,96.69682890000058,None,96.69688550000046,96.69690830000036,None,,,,,,,,,,,,,007,001,2026-01-28_15h59.42.276,NESC3137_EEG_experiment,,2025.1.1,59.9663468862097,2026-01-28 16h00.19.980177 -0400,
56,0,56,up,None,0.452863200000138,None,,,56,0,56,0,96.71284400000059,,,,,,,,,,,,,,,,,,,,96.69704249999995,96.71284400000059,97.51208250000036,97.49612740000066,1,97.50763740000002,97.51208250000036,97.51208250000036,98.01288120000027,98.01288120000027,97.99619350000012,up,97.9962458,97.99626500000068,None,0.452863200000138,None,,,,,,,,,,,007,001,2026-01-28_15h59.42.276,NESC3137_EEG_experiment,,2025.1.1,59.9663468862097,2026-01-28 16h00.19.980177 -0400,
57,0,57,None,None,,,,,57,0,57,0,98.01288120000027,,,,,,,,,,,,,,,,,,,,97.9966185000003,98.01288120000027,98.62898780000069,98.61286440000003,1,98.62552529999994,98.62898780000069,98.62898780000069,,,99.11317550000058,None,99.11324060000061,99.11327840000013,None,,,,,,,,,,,,,007,001,2026-01-28_15h59.42.276,NESC3137_EEG_experiment,,2025.1.1,59.9663468862097,2026-01-28 16h00.19.980177 -0400,
58,0,58,None,None,,,,,58,0,58,0,99.12940580000031,,,,,,,,,,,,,,,,,,,,99.11348360000011,99.12940580000031,99.72881409999991,99.71245429999999,1,99.72397200000069,99.72881409999991,99.72881409999991,,,100.21294570000009,None,100.21300800000063,100.2130416,None,,,,,,,,,,,,,007,001,2026-01-28_15h59.42.276,NESC3137_EEG_experiment,,2025.1.1,59.9663468862097,2026-01-28 16h00.19.980177 -0400,
59,0,59,up,None,0.41827120000016293,None,,,59,0,59,0,100.22923700000047,,,,,,,,,,,,,,,,,,,,100.21324210000057,100.22923700000047,100.97884390000036,100.96301080000012,1,100.9749941,100.97884390000036,100.97884390000036,101.47924899999998,101.47924899999998,101.46296580000035,up,101.4630274000001,101.46306110000023,None,0.41827120000016293,None,,,,,,,,,,,007,001,2026-01-28_15h59.42.276,NESC3137_EEG_experiment,,2025.1.1,59.9663468862097,2026-01-28 16h00.19.980177 -0400,
60,0,60,None,None,,,,,60,0,60,0,101.47924899999998,,,,,,,,,,,,,,,,,,,,101.46324999999979,101.47924899999998,102.32871729999988,102.3130600000004,2,102.32516290000058,102.32871729999988,102.32871729999988,102.82935069999985,102.82935069999985,102.81260010000005,None,102.81265330000042,102.81268749999981,None,,,,,,,,,,,,,007,001,2026-01-28_15h59.42.276,NESC3137_EEG_experiment,,2025.1.1,59.9663468862097,2026-01-28 16h00.19.980177 -0400,
61,0,61,up,None,0.3270369000001665,None,,,61,0,61,0,102.82935069999985,,,,,,,,,,,,,,,,,,,,102.81289000000015,102.82935069999985,103.64599080000062,103.62977240000055,1,103.64041610000004,103.64599080000062,103.64599080000062,104.14591300000029,104.14591300000029,104.1297338000004,up,104.1297940000004,104.12981720000062,None,0.3270369000001665,None,,,,,,,,,,,007,001,2026-01-28_15h59.42.276,NESC3137_EEG_experiment,,2025.1.1,59.9663468862097,2026-01-28 16h00.19.980177 -0400,
62,0,62,None,None,,,,,62,0,62,0,104.14591300000029,,,,,,,,,,,,,,,,,,,,104.12993199999983,104.14591300000029,104.89580449999994,104.8797695000003,2,104.89145590000044,104.89580449999994,104.89580449999994,105.39550790000067,105.39550790000067,105.37943080000059,None,105.37948430000051,105.37951710000016,None,,,,,,,,,,,,,007,001,2026-01-28_15h59.42.276,NESC3137_EEG_experiment,,2025.1.1,59.9663468862097,2026-01-28 16h00.19.980177 -0400,
63,0,63,None,None,,,,,63,0,63,0,105.39550790000067,,,,,,,,,,,,,,,,,,,,105.37971540000035,105.39550790000067,106.16264320000028,106.14603840000018,2,106.15741720000005,106.16264320000028,106.16264320000028,,,106.64632170000004,None,106.64639130000069,106.64643070000056,None,,,,,,,,,,,,,007,001,2026-01-28_15h59.42.276,NESC3137_EEG_experiment,,2025.1.1,59.9663468862097,2026-01-28 16h00.19.980177 -0400,
64,0,64,None,None,,,,,64,0,64,0,106.66281870000057,,,,,,,,,,,,,,,,,,,,106.64665270000023,106.66281870000057,107.42872669999997,107.4130309000002,1,107.42494429999988,107.42872669999997,107.42872669999997,107.92929619999995,107.92929619999995,107.91274490000069,None,107.9128083000005,107.91284180000002,None,,,,,,,,,,,,,007,001,2026-01-28_15h59.42.276,NESC3137_EEG_experiment,,2025.1.1,59.9663468862097,2026-01-28 16h00.19.980177 -0400,
65,0,65,None,None,,,,,65,0,65,0,107.92929619999995,,,,,,,,,,,,,,,,,,,,107.91305210000064,107.92929619999995,108.76264059999994,108.74621800000023,2,108.75754310000048,108.76264059999994,108.76264059999994,,,109.24649600000066,None,109.2465686000005,109.24659820000034,None,,,,,,,,,,,,,007,001,2026-01-28_15h59.42.276,NESC3137_EEG_experiment,,2025.1.1,59.9663468862097,2026-01-28 16h00.19.980177 -0400,
66,0,66,up,None,0.4339639999998326,None,,,66,0,66,0,109.26291029999993,,,,,,,,,,,,,,,,,,,,109.2467373999998,109.26291029999993,110.17925290000039,110.16297889999987,1,110.17332369999986,110.17925290000039,110.17925290000039,110.67925530000048,110.67925530000048,110.66285330000028,up,110.6629124000001,110.66294190000008,None,0.4339639999998326,None,,,,,,,,,,,007,001,2026-01-28_15h59.42.276,NESC3137_EEG_experiment,,2025.1.1,59.9663468862097,2026-01-28 16h00.19.980177 -0400,
67,0,67,down,None,0.3903697000005195,None,,,67,0,67,0,110.67925530000048,,,,,,,,,,,,,,,,,,,,110.66311769999993,110.67925530000048,111.4626072000001,111.44659289999981,2,111.45785140000044,111.4626072000001,111.4626072000001,111.96265070000027,111.96265070000027,111.94667620000018,down,111.94674219999979,111.94677610000053,None,0.3903697000005195,None,,,,,,,,,,,007,001,2026-01-28_15h59.42.276,NESC3137_EEG_experiment,,2025.1.1,59.9663468862097,2026-01-28 16h00.19.980177 -0400,
68,0,68,up,None,0.3590438000001086,None,,,68,0,68,0,111.96265070000027,,,,,,,,,,,,,,,,,,,,111.9469880000006,111.96265070000027,112.86220520000006,112.8461242000003,2,112.8577763000003,112.86220520000006,112.86220520000006,113.36284530000012,113.36284530000012,113.34631050000007,up,113.34635600000001,113.34637850000036,None,0.3590438000001086,None,,,,,,,,,,,007,001,2026-01-28_15h59.42.276,NESC3137_EEG_experiment,,2025.1.1,59.9663468862097,2026-01-28 16h00.19.980177 -0400,
69,0,69,None,None,,,,,69,0,69,0,113.36284530000012,,,,,,,,,,,,,,,,,,,,113.34652340000048,113.36284530000012,114.34544410000035,114.32965860000058,1,114.34047740000005,114.34544410000035,114.34544410000035,114.84606890000032,114.84606890000032,114.82976580000013,None,114.82982450000054,114.8298579000002,None,,,,,,,,,,,,,007,001,2026-01-28_15h59.42.276,NESC3137_EEG_experiment,,2025.1.1,59.9663468862097,2026-01-28 16h00.19.980177 -0400,
70,0,70,None,None,,,,,70,0,70,0,114.84606890000032,,,,,,,,,,,,,,,,,,,,114.83005779999985,114.84606890000032,115.37886010000057,115.36260149999998,2,115.37442210000063,115.37886010000057,115.37886010000057,,,115.86278450000009,None,115.86283220000041,115.86285360000056,None,,,,,,,,,,,,,007,001,2026-01-28_15h59.42.276,NESC3137_EEG_experiment,,2025.1.1,59.9663468862097,2026-01-28 16h00.19.980177 -0400,
71,0,71,None,None,,,,,71,0,71,0,115.87943320000068,,,,,,,,,,,,,,,,,,,,115.86298840000018,115.87943320000068,116.84615870000016,116.82944320000024,1,116.84012750000056,116.84615870000016,116.84615870000016,117.34595590000026,117.34595590000026,117.32950510000046,None,117.32955980000042,117.32959320000009,None,,,,,,,,,,,,,007,001,2026-01-28_15h59.42.276,NESC3137_EEG_experiment,,2025.1.1,59.9663468862097,2026-01-28 16h00.19.980177 -0400,
72,0,72,None,None,,,,,72,0,72,0,117.34595590000026,,,,,,,,,,,,,,,,,,,,117.32978670000011,117.34595590000026,117.94534100000055,117.92900840000038,2,117.9406738000007,117.94534100000055,117.94534100000055,,,118.42937970000003,None,118.42945130000044,118.42948530000012,None,,,,,,,,,,,,,007,001,2026-01-28_15h59.42.276,NESC3137_EEG_experiment,,2025.1.1,59.9663468862097,2026-01-28 16h00.19.980177 -0400,
73,0,73,None,None,,,,,73,0,73,0,118.44586680000066,,,,,,,,,,,,,,,,,,,,118.42967270000008,118.44586680000066,119.14587360000041,119.1294512000004,1,119.14264679999997,119.14587360000041,119.14587360000041,119.64602060000016,119.64602060000016,119.62900300000001,None,119.62905990000036,119.62909200000013,None,,,,,,,,,,,,,007,001,2026-01-28_15h59.42.276,NESC3137_EEG_experiment,,2025.1.1,59.9663468862097,2026-01-28 16h00.19.980177 -0400,
74,0,74,None,None,,,,,74,0,74,0,119.64602060000016,,,,,,,,,,,,,,,,,,,,119.6292825999999,119.64602060000016,120.22893759999988,120.21285700000044,2,120.22499229999994,120.22893759999988,120.22893759999988,120.72938820000036,120.72938820000036,120.71304969999983,None,120.71312170000056,120.7131674000002,None,,,,,,,,,,,,,007,001,2026-01-28_15h59.42.276,NESC3137_EEG_experiment,,2025.1.1,59.9663468862097,2026-01-28 16h00.19.980177 -0400,
75,0,75,up,None,0.28584980000050564,0.1360711999996056,,,75,0,75,0,120.72938820000036,,,,,,,,,,,,,,,,,,,,120.71335989999989,120.72938820000036,121.67906089999997,121.66287580000062,1,121.67460410000058,121.67906089999997,121.67906089999997,122.1788932999998,122.1788932999998,122.1628141000001,up,122.16287199999988,122.16290130000016,None,0.28584980000050564,0.1360711999996056,,,,,,,,,,,007,001,2026-01-28_15h59.42.276,NESC3137_EEG_experiment,,2025.1.1,59.9663468862097,2026-01-28 16h00.19.980177 -0400,
76,0,76,up,None,0.4478757000006226,None,,,76,0,76,0,122.1788932999998,,,,,,,,,,,,,,,,,,,,122.1630740999999,122.1788932999998,122.81306300000051,122.79617740000049,2,122.80770610000036,122.81306300000051,122.81306300000051,123.31292160000066,123.31292160000066,123.29621810000026,up,123.2962636000002,123.29628250000042,None,0.4478757000006226,None,,,,,,,,,,,007,001,2026-01-28_15h59.42.276,NESC3137_EEG_experiment,,2025.1.1,59.9663468862097,2026-01-28 16h00.19.980177 -0400,
77,0,77,down,None,0.3510801000002175,None,,,77,0,77,0,123.31292160000066,,,,,,,,,,,,,,,,,,,,123.29644410000037,123.31292160000066,124.26209220000055,124.24627899999996,2,124.25789750000058,124.26209220000055,124.26209220000055,124.76282390000051,124.76282390000051,124.74577760000011,down,124.74584240000058,124.74587630000042,None,0.3510801000002175,None,,,,,,,,,,,007,001,2026-01-28_15h59.42.276,NESC3137_EEG_experiment,,2025.1.1,59.9663468862097,2026-01-28 16h00.19.980177 -0400,
78,0,78,None,None,,,,,78,0,78,0,124.76282390000051,,,,,,,,,,,,,,,,,,,,124.74606769999991,124.76282390000051,125.31252550000045,125.29644319999989,1,125.30764330000056,125.31252550000045,125.31252550000045,125.81266370000048,125.81266370000048,125.79641210000045,None,125.79646670000056,125.79654410000057,None,,,,,,,,,,,,,007,001,2026-01-28_15h59.42.276,NESC3137_EEG_experiment,,2025.1.1,59.9663468862097,2026-01-28 16h00.19.980177 -0400,
79,0,79,up,None,0.45775570000023436,None,,,79,0,79,0,125.81266370000048,,,,,,,,,,,,,,,,,,,,125.7967365000004,125.81266370000048,126.59533610000017,126.57975630000055,2,126.59143080000013,126.59533610000017,126.59533610000017,127.09617650000018,127.09617650000018,127.07966120000037,up,127.07972729999983,127.07974970000032,None,0.45775570000023436,None,,,,,,,,,,,007,001,2026-01-28_15h59.42.276,NESC3137_EEG_experiment,,2025.1.1,59.9663468862097,2026-01-28 16h00.19.980177 -0400,
80,0,80,None,None,,,,,80,0,80,0,127.09617650000018,,,,,,,,,,,,,,,,,,,,127.07990950000021,127.09617650000018,127.64536700000008,127.62958220000019,2,127.6415047999999,127.64536700000008,127.64536700000008,128.14545660000022,128.14545660000022,128.1291129000001,None,128.1291755000002,128.1292082,None,,,,,,,,,,,,,007,001,2026-01-28_15h59.42.276,NESC3137_EEG_experiment,,2025.1.1,59.9663468862097,2026-01-28 16h00.19.980177 -0400,
81,0,81,None,None,,,,,81,0,81,0,128.14545660000022,,,,,,,,,,,,,,,,,,,,128.12939770000048,128.14545660000022,128.76258420000067,128.7464344,1,128.75734300000022,128.76258420000067,128.76258420000067,129.26270019999993,129.26270019999993,129.2461916000002,None,129.24624810000023,129.24627370000053,None,,,,,,,,,,,,,007,001,2026-01-28_15h59.42.276,NESC3137_EEG_experiment,,2025.1.1,59.9663468862097,2026-01-28 16h00.19.980177 -0400,
82,0,82,None,None,,,,,82,0,82,0,129.26270019999993,,,,,,,,,,,,,,,,,,,,129.24639780000052,129.26270019999993,129.7958137000005,129.7796715000004,2,129.79097880000063,129.7958137000005,129.7958137000005,130.29566520000026,130.29566520000026,130.2797741000004,None,130.27982710000015,130.27986039999996,None,,,,,,,,,,,,,007,001,2026-01-28_15h59.42.276,NESC3137_EEG_experiment,,2025.1.1,59.9663468862097,2026-01-28 16h00.19.980177 -0400,
83,0,83,None,None,,,,,83,0,83,0,130.29566520000026,,,,,,,,,,,,,,,,,,,,130.28005360000043,130.29566520000026,131.0954040000006,131.07907780000005,1,131.09029550000014,131.0954040000006,131.0954040000006,131.5955229000001,131.5955229000001,131.57906410000032,None,131.5791165999999,131.57915070000035,None,,,,,,,,,,,,,007,001,2026-01-28_15h59.42.276,NESC3137_EEG_experiment,,2025.1.1,59.9663468862097,2026-01-28 16h00.19.980177 -0400,
84,0,84,up,None,0.4658324000001812,None,,,84,0,84,0,131.5955229000001,,,,,,,,,,,,,,,,,,,,131.57934240000031,131.5955229000001,132.57922360000066,132.56285670000034,1,132.57354339999983,132.57922360000066,132.57922360000066,,,133.06314810000003,up,133.06321710000066,133.06323840000005,None,0.4658324000001812,None,,,,,,,,,,,007,001,2026-01-28_15h59.42.276,NESC3137_EEG_experiment,,2025.1.1,59.9663468862097,2026-01-28 16h00.19.980177 -0400,
85,0,85,up,None,0.46253729999989446,None,,,85,0,85,0,133.07947409999997,,,,,,,,,,,,,,,,,,,,133.06337890000032,133.07947409999997,133.8624620999999,133.84635770000023,1,133.85814889999983,133.8624620999999,133.8624620999999,134.36267700000008,134.36267700000008,134.3459025000002,up,134.34594470000047,134.3459628999999,None,0.46253729999989446,None,,,,,,,,,,,007,001,2026-01-28_15h59.42.276,NESC3137_EEG_experiment,,2025.1.1,59.9663468862097,2026-01-28 16h00.19.980177 -0400,
86,0,86,up,None,0.45420539999940956,None,,,86,0,86,0,134.36267700000008,,,,,,,,,,,,,,,,,,,,134.34608879999996,134.36267700000008,135.27870299999995,135.26235570000063,1,135.27383800000007,135.27870299999995,135.27870299999995,,,135.76277910000044,up,135.7628469000001,135.76286870000058,None,0.45420539999940956,None,,,,,,,,,,,007,001,2026-01-28_15h59.42.276,NESC3137_EEG_experiment,,2025.1.1,59.9663468862097,2026-01-28 16h00.19.980177 -0400,
87,0,87,None,None,,,,,87,0,87,0,135.77960070000063,,,,,,,,,,,,,,,,,,,,135.76304530000016,135.77960070000063,136.31215650000013,136.2961307000005,2,136.30831970000054,136.31215650000013,136.31215650000013,136.8122312000005,136.8122312000005,136.7957409999999,None,136.79579290000038,136.79582370000026,None,,,,,,,,,,,,,007,001,2026-01-28_15h59.42.276,NESC3137_EEG_experiment,,2025.1.1,59.9663468862097,2026-01-28 16h00.19.980177 -0400,
88,0,88,up,None,0.3989024000002246,None,,,88,0,88,0,136.8122312000005,,,,,,,,,,,,,,,,,,,,136.79601410000032,136.8122312000005,137.66206640000019,137.64655260000018,1,137.65809790000003,137.66206640000019,137.66206640000019,138.16273600000022,138.16273600000022,138.14634190000015,up,138.1463973,138.14642090000052,None,0.3989024000002246,None,,,,,,,,,,,007,001,2026-01-28_15h59.42.276,NESC3137_EEG_experiment,,2025.1.1,59.9663468862097,2026-01-28 16h00.19.980177 -0400,
89,0,89,None,None,,,,,89,0,89,0,138.16273600000022,,,,,,,,,,,,,,,,,,,,138.14655519999997,138.16273600000022,138.86204630000066,138.8463857000006,1,138.85807209999984,138.86204630000066,138.86204630000066,139.36279749999994,139.36279749999994,139.34658089999994,None,139.34663050000017,139.34685360000003,None,,,,,,,,,,,,,007,001,2026-01-28_15h59.42.276,NESC3137_EEG_experiment,,2025.1.1,59.9663468862097,2026-01-28 16h00.19.980177 -0400,
90,0,90,None,None,,,,,90,0,90,0,139.36279749999994,,,,,,,,,,,,,,,,,,,,139.34704060000058,139.36279749999994,140.12906600000042,140.11312830000043,2,140.12509930000033,140.12906600000042,140.12906600000042,140.62914360000013,140.62914360000013,140.6123335000002,None,140.61238680000042,140.61241830000017,None,,,,,,,,,,,,,007,001,2026-01-28_15h59.42.276,NESC3137_EEG_experiment,,2025.1.1,59.9663468862097,2026-01-28 16h00.19.980177 -0400,
91,0,91,None,None,,,,,91,0,91,0,140.62914360000013,,,,,,,,,,,,,,,,,,,,140.61262460000034,140.62914360000013,141.24532510000063,141.22894580000047,2,141.24137840000003,141.24532510000063,141.24532510000063,,,141.7295662000006,None,141.7296236000002,141.72968240000046,None,,,,,,,,,,,,,007,001,2026-01-28_15h59.42.276,NESC3137_EEG_experiment,,2025.1.1,59.9663468862097,2026-01-28 16h00.19.980177 -0400,
92,0,92,None,None,,,,,92,0,92,0,141.74607950000063,,,,,,,,,,,,,,,,,,,,141.72983660000045,141.74607950000063,142.47873549999986,142.4628106,1,142.47454300000027,142.47873549999986,142.47873549999986,,,142.9630259000005,None,142.9630901999999,142.96312730000045,None,,,,,,,,,,,,,007,001,2026-01-28_15h59.42.276,NESC3137_EEG_experiment,,2025.1.1,59.9663468862097,2026-01-28 16h00.19.980177 -0400,
93,0,93,None,None,,,,,93,0,93,0,142.97961720000058,,,,,,,,,,,,,,,,,,,,142.96334500000012,142.97961720000058,143.91196600000058,143.89607890000025,2,143.90788520000024,143.91196600000058,143.91196600000058,,,144.39624809999987,None,144.39629980000063,144.39632940000047,None,,,,,,,,,,,,,007,001,2026-01-28_15h59.42.276,NESC3137_EEG_experiment,,2025.1.1,59.9663468862097,2026-01-28 16h00.19.980177 -0400,
94,0,94,up,None,0.4456838999994943,None,,,94,0,94,0,144.41267150000022,,,,,,,,,,,,,,,,,,,,144.39653140000064,144.41267150000022,145.07930600000054,145.06314269999984,1,145.07396250000056,145.07930600000054,145.07930600000054,145.5792763999998,145.5792763999998,145.56288570000015,up,145.56295099999988,145.5629810999999,None,0.4456838999994943,None,,,,,,,,,,,007,001,2026-01-28_15h59.42.276,NESC3137_EEG_experiment,,2025.1.1,59.9663468862097,2026-01-28 16h00.19.980177 -0400,
95,0,95,None,None,,,,,95,0,95,0,145.5792763999998,,,,,,,,,,,,,,,,,,,,145.5632015000001,145.5792763999998,146.36211340000045,146.34622490000038,2,146.3574875000004,146.36211340000045,146.36211340000045,146.8621931000007,146.8621931000007,146.84564730000056,None,146.84569620000002,146.84572610000032,None,,,,,,,,,,,,,007,001,2026-01-28_15h59.42.276,NESC3137_EEG_experiment,,2025.1.1,59.9663468862097,2026-01-28 16h00.19.980177 -0400,
96,0,96,None,None,,,,,96,0,96,0,146.8621931000007,,,,,,,,,,,,,,,,,,,,146.84589700000015,146.8621931000007,147.54559120000067,147.52951010000015,2,147.54208420000032,147.54559120000067,147.54559120000067,,,148.02996130000065,None,148.03001190000032,148.0300403000001,None,,,,,,,,,,,,,007,001,2026-01-28_15h59.42.276,NESC3137_EEG_experiment,,2025.1.1,59.9663468862097,2026-01-28 16h00.19.980177 -0400,
97,0,97,up,None,0.4424013999996532,None,,,97,0,97,0,148.04541440000048,,,,,,,,,,,,,,,,,,,,148.03019250000034,148.04541440000048,148.97859710000012,148.96285369999987,1,148.97580010000001,148.97859710000012,148.97859710000012,149.47959119999996,149.47959119999996,149.46279779999986,up,149.46285220000027,149.46287080000002,None,0.4424013999996532,None,,,,,,,,,,,007,001,2026-01-28_15h59.42.276,NESC3137_EEG_experiment,,2025.1.1,59.9663468862097,2026-01-28 16h00.19.980177 -0400,
98,0,98,None,None,,,,,98,0,98,0,149.47959119999996,,,,,,,,,,,,,,,,,,,,149.46300710000014,149.47959119999996,150.19532760000038,150.1790813000007,1,150.1913443000003,150.19532760000038,150.19532760000038,,,150.67955710000024,None,150.67960510000012,150.67962660000012,None,,,,,,,,,,,,,007,001,2026-01-28_15h59.42.276,NESC3137_EEG_experiment,,2025.1.1,59.9663468862097,2026-01-28 16h00.19.980177 -0400,
99,0,99,None,None,,,,,99,0,99,0,150.6960727000005,,,,,,,,,,,,,,,,,,,,150.67977370000062,150.6960727000005,151.2626353000005,151.2457813000001,1,151.25919969999995,151.2626353000005,151.2626353000005,,,151.74654379999993,None,151.74662200000057,151.74665580000055,None,,,,,,,,,,,,,007,001,2026-01-28_15h59.42.276,NESC3137_EEG_experiment,,2025.1.1,59.9663468862097,2026-01-28 16h00.19.980177 -0400,
100,0,100,None,None,,,,,100,0,100,0,151.76277120000032,,,,,,,,,,,,,,,,,,,,151.74684810000053,151.76277120000032,152.69530310000027,152.67946680000023,1,152.69202870000026,152.69530310000027,152.69530310000027,153.19594680000046,153.19594680000046,153.1793606000001,None,153.17941340000016,153.17944400000033,None,,,,,,,,,,,,,007,001,2026-01-28_15h59.42.276,NESC3137_EEG_experiment,,2025.1.1,59.9663468862097,2026-01-28 16h00.19.980177 -0400,
101,0,101,None,None,,,,,101,0,101,0,153.19594680000046,,,,,,,,,,,,,,,,,,,,153.17963670000063,153.19594680000046,153.7629625999998,153.74583990000065,2,153.76014209999994,153.7629625999998,153.7629625999998,,,154.24600330000067,None,154.24605090000023,154.2460718000002,None,,,,,,,,,,,,,007,001,2026-01-28_15h59.42.276,NESC3137_EEG_experiment,,2025.1.1,59.9663468862097,2026-01-28 16h00.19.980177 -0400,
102,0,102,None,None,,,,,102,0,102,0,154.26294570000027,,,,,,,,,,,,,,,,,,,,154.24621240000033,154.26294570000027,155.19580850000057,155.17979819999982,2,155.1910938000001,155.19580850000057,155.19580850000057,155.69576570000027,155.69576570000027,155.6790707,None,155.67912520000027,155.67915790000006,None,,,,,,,,,,,,,007,001,2026-01-28_15h59.42.276,NESC3137_EEG_experiment,,2025.1.1,59.9663468862097,2026-01-28 16h00.19.980177 -0400,
103,0,103,None,None,,,,,103,0,103,0,155.69576570000027,,,,,,,,,,,,,,,,,,,,155.67935980000038,155.69576570000027,156.5622942,156.54604550000022,1,156.55829710000035,156.5622942,156.5622942,,,157.0474850999999,None,157.04753299999993,157.04755430000023,None,,,,,,,,,,,,,007,001,2026-01-28_15h59.42.276,NESC3137_EEG_experiment,,2025.1.1,59.9663468862097,2026-01-28 16h00.19.980177 -0400,
104,0,104,None,None,,,,,104,0,104,0,157.0624428000001,,,,,,,,,,,,,,,,,,,,157.04769269999997,157.0624428000001,157.72882610000033,157.71282239999982,2,157.72421900000063,157.72882610000033,157.72882610000033,,,158.21305459999985,None,158.2131005000001,158.21312190000026,None,,,,,,,,,,,,,007,001,2026-01-28_15h59.42.276,NESC3137_EEG_experiment,,2025.1.1,59.9663468862097,2026-01-28 16h00.19.980177 -0400,
105,0,105,None,None,,,,,105,0,105,0,158.2295264000004,,,,,,,,,,,,,,,,,,,,158.2132687000003,158.2295264000004,158.84587139999985,158.82930829999987,2,158.84315830000014,158.84587139999985,158.84587139999985,,,159.3295681999998,None,159.32962980000048,159.32966670000042,None,,,,,,,,,,,,,007,001,2026-01-28_15h59.42.276,NESC3137_EEG_experiment,,2025.1.1,59.9663468862097,2026-01-28 16h00.19.980177 -0400,
106,0,106,None,None,,,,,106,0,106,0,159.3460487000002,,,,,,,,,,,,,,,,,,,,159.3298777,159.3460487000002,159.86207920000015,159.8463356000002,1,159.85882370000036,159.86207920000015,159.86207920000015,160.36270310000054,160.36270310000054,160.34650909999982,None,160.3465624999999,160.34659490000013,None,,,,,,,,,,,,,007,001,2026-01-28_15h59.42.276,NESC3137_EEG_experiment,,2025.1.1,59.9663468862097,2026-01-28 16h00.19.980177 -0400,
107,0,107,None,None,,,,,107,0,107,0,160.36270310000054,,,,,,,,,,,,,,,,,,,,160.34674340000038,160.36270310000054,160.87873450000006,160.86275509999996,2,160.8754058000004,160.87873450000006,160.87873450000006,,,161.36304389999987,None,161.3631075000003,161.3631507,None,,,,,,,,,,,,,007,001,2026-01-28_15h59.42.276,NESC3137_EEG_experiment,,2025.1.1,59.9663468862097,2026-01-28 16h00.19.980177 -0400,
108,0,108,None,None,,,,,108,0,108,0,161.3795123,,,,,,,,,,,,,,,,,,,,161.3633705000002,161.3795123,162.2791427000002,162.26315539999996,1,162.27554730000065,162.2791427000002,162.2791427000002,162.77928210000027,162.77928210000027,162.76243450000038,None,162.76248279999982,162.76253180000003,None,,,,,,,,,,,,,007,001,2026-01-28_15h59.42.276,NESC3137_EEG_experiment,,2025.1.1,59.9663468862097,2026-01-28 16h00.19.980177 -0400,
109,0,109,None,None,,,,,109,0,109,0,162.77928210000027,,,,,,,,,,,,,,,,,,,,162.7627069,162.77928210000027,163.3122452000007,163.29594540000016,1,163.30836,163.3122452000007,163.3122452000007,163.81243650000033,163.81243650000033,163.79602460000024,None,163.7960778000006,163.7961095999999,None,,,,,,,,,,,,,007,001,2026-01-28_15h59.42.276,NESC3137_EEG_experiment,,2025.1.1,59.9663468862097,2026-01-28 16h00.19.980177 -0400,
110,0,110,None,None,,,,,110,0,110,0,163.81243650000033,,,,,,,,,,,,,,,,,,,,163.7962950000001,163.81243650000033,164.76200590000008,164.74570940000012,1,164.75677900000028,164.76200590000008,164.76200590000008,165.26268210000035,165.26268210000035,165.24585790000037,None,165.24591300000066,165.24593189999996,None,,,,,,,,,,,,,007,001,2026-01-28_15h59.42.276,NESC3137_EEG_experiment,,2025.1.1,59.9663468862097,2026-01-28 16h00.19.980177 -0400,
111,0,111,None,None,,,,,111,0,111,0,165.26268210000035,,,,,,,,,,,,,,,,,,,,165.24607410000044,165.26268210000035,166.1954241000003,166.1793916000006,2,166.19146330000058,166.1954241000003,166.1954241000003,166.69548470000063,166.69548470000063,166.6794915999999,None,166.6795517999999,166.67958360000011,None,,,,,,,,,,,,,007,001,2026-01-28_15h59.42.276,NESC3137_EEG_experiment,,2025.1.1,59.9663468862097,2026-01-28 16h00.19.980177 -0400,
112,0,112,None,None,,,,,112,0,112,0,166.69548470000063,,,,,,,,,,,,,,,,,,,,166.67977940000037,166.69548470000063,167.22860240000045,167.21270710000044,1,167.2261352000005,167.22860240000045,167.22860240000045,167.72922370000015,167.72922370000015,167.71282410000003,None,167.7128646000001,167.71288280000044,None,,,,,,,,,,,,,007,001,2026-01-28_15h59.42.276,NESC3137_EEG_experiment,,2025.1.1,59.9663468862097,2026-01-28 16h00.19.980177 -0400,
113,0,113,None,None,,,,,113,0,113,0,167.72922370000015,,,,,,,,,,,,,,,,,,,,167.71301780000067,167.72922370000015,168.31218679999984,168.29609620000065,2,168.3079974000002,168.31218679999984,168.31218679999984,,,168.79622740000013,None,168.79628830000001,168.79631060000065,None,,,,,,,,,,,,,007,001,2026-01-28_15h59.42.276,NESC3137_EEG_experiment,,2025.1.1,59.9663468862097,2026-01-28 16h00.19.980177 -0400,
114,0,114,None,None,,,,,114,0,114,0,168.8126646999999,,,,,,,,,,,,,,,,,,,,168.79645210000035,168.8126646999999,169.64538940000057,169.62953370000014,2,169.64218530000016,169.64538940000057,169.64538940000057,170.14545249999992,170.14545249999992,170.1295321000007,None,170.1295841000001,170.12961580000047,None,,,,,,,,,,,,,007,001,2026-01-28_15h59.42.276,NESC3137_EEG_experiment,,2025.1.1,59.9663468862097,2026-01-28 16h00.19.980177 -0400,
115,0,115,up,None,0.4252067999996143,None,,,115,0,115,0,170.14545249999992,,,,,,,,,,,,,,,,,,,,170.12980680000055,170.14545249999992,170.99572070000067,170.9798283,1,170.9926886000003,170.99572070000067,170.99572070000067,171.49607819999983,171.49607819999983,171.47970850000002,up,171.4797625000001,171.47978150000017,None,0.4252067999996143,None,,,,,,,,,,,007,001,2026-01-28_15h59.42.276,NESC3137_EEG_experiment,,2025.1.1,59.9663468862097,2026-01-28 16h00.19.980177 -0400,
116,0,116,None,None,,,,,116,0,116,0,171.49607819999983,,,,,,,,,,,,,,,,,,,,171.48033990000022,171.49607819999983,172.46257030000015,172.44630340000003,1,172.45720450000044,172.46257030000015,172.46257030000015,172.96274600000015,172.96274600000015,172.9462567999999,None,172.94629799999984,172.94631710000067,None,,,,,,,,,,,,,007,001,2026-01-28_15h59.42.276,NESC3137_EEG_experiment,,2025.1.1,59.9663468862097,2026-01-28 16h00.19.980177 -0400,
117,0,117,None,None,,,,,117,0,117,0,172.96274600000015,,,,,,,,,,,,,,,,,,,,172.94644810000045,172.96274600000015,173.64543709999998,173.62931800000024,1,173.6416909999998,173.64543709999998,173.64543709999998,,,174.1295522999999,None,174.12961630000063,174.12965239999994,None,,,,,,,,,,,,,007,001,2026-01-28_15h59.42.276,NESC3137_EEG_experiment,,2025.1.1,59.9663468862097,2026-01-28 16h00.19.980177 -0400,
118,0,118,up,None,0.4434750999998869,None,,,118,0,118,0,174.14611800000057,,,,,,,,,,,,,,,,,,,,174.12985990000016,174.14611800000057,174.94550590000017,174.92983129999993,1,174.94209910000063,174.94550590000017,174.94550590000017,175.4459035,175.4459035,175.42999250000048,up,175.4300557000006,175.43007399999988,None,0.4434750999998869,None,,,,,,,,,,,007,001,2026-01-28_15h59.42.276,NESC3137_EEG_experiment,,2025.1.1,59.9663468862097,2026-01-28 16h00.19.980177 -0400,
119,0,119,None,None,,,,,119,0,119,0,175.4459035,,,,,,,,,,,,,,,,,,,,175.43029400000069,175.4459035,176.062046,176.0456524000001,2,176.05824350000057,176.062046,176.062046,,,176.54595340000014,None,176.54601600000024,176.54605850000007,None,,,,,,,,,,,,,007,001,2026-01-28_15h59.42.276,NESC3137_EEG_experiment,,2025.1.1,59.9663468862097,2026-01-28 16h00.19.980177 -0400,
120,0,120,None,None,,,,,120,0,120,0,176.56250799999998,,,,,,,,,,,,,,,,,,,,176.54626180000014,176.56250799999998,177.17867490000026,177.16300450000017,1,177.1752572000005,177.17867490000026,177.17867490000026,,,177.66324500000064,None,177.6632924000005,177.66331309999987,None,,,,,,,,,,,,,007,001,2026-01-28_15h59.42.276,NESC3137_EEG_experiment,,2025.1.1,59.9663468862097,2026-01-28 16h00.19.980177 -0400,
121,0,121,None,None,,,,,121,0,121,0,177.6792688000005,,,,,,,,,,,,,,,,,,,,177.6634479000004,177.6792688000005,178.46201230000042,178.44604580000032,2,178.4570862999999,178.46201230000042,178.46201230000042,,,178.94630229999984,None,178.94639760000064,178.94642199999998,None,,,,,,,,,,,,,007,001,2026-01-28_15h59.42.276,NESC3137_EEG_experiment,,2025.1.1,59.9663468862097,2026-01-28 16h00.19.980177 -0400,
122,0,122,None,None,,,,,122,0,122,0,178.9628188000006,,,,,,,,,,,,,,,,,,,,178.94658330000038,178.9628188000006,179.69533709999996,179.6789993000002,2,179.69070139999985,179.69533709999996,179.69533709999996,180.1954581,180.1954581,180.17901990000064,None,180.1790759000005,180.17910870000014,None,,,,,,,,,,,,,007,001,2026-01-28_15h59.42.276,NESC3137_EEG_experiment,,2025.1.1,59.9663468862097,2026-01-28 16h00.19.980177 -0400,
123,0,123,None,None,,,,,123,0,123,0,180.1954581,,,,,,,,,,,,,,,,,,,,180.17930510000042,180.1954581,180.81202140000005,180.79595729999983,2,180.80778210000062,180.81202140000005,180.81202140000005,181.31263649999983,181.31263649999983,181.29612730000008,None,181.29618870000013,181.2962223000004,None,,,,,,,,,,,,,007,001,2026-01-28_15h59.42.276,NESC3137_EEG_experiment,,2025.1.1,59.9663468862097,2026-01-28 16h00.19.980177 -0400,
124,0,124,None,None,,,,,124,0,124,0,181.31263649999983,,,,,,,,,,,,,,,,,,,,181.2966409999999,181.31263649999983,182.2624566000004,182.24574960000064,2,182.2590621999998,182.2624566000004,182.2624566000004,,,182.7459471000002,None,182.74604350000027,182.74610389999998,None,,,,,,,,,,,,,007,001,2026-01-28_15h59.42.276,NESC3137_EEG_experiment,,2025.1.1,59.9663468862097,2026-01-28 16h00.19.980177 -0400,
125,0,125,None,None,,,,,125,0,125,0,182.76268280000022,,,,,,,,,,,,,,,,,,,,182.74631360000058,182.76268280000022,183.3291122999999,183.31306610000047,2,183.32465330000014,183.3291122999999,183.3291122999999,183.82916420000038,183.82916420000038,183.81278050000037,None,183.81283520000034,183.8128701000005,None,,,,,,,,,,,,,007,001,2026-01-28_15h59.42.276,NESC3137_EEG_experiment,,2025.1.1,59.9663468862097,2026-01-28 16h00.19.980177 -0400,
126,0,126,None,None,,,,,126,0,126,0,183.82916420000038,,,,,,,,,,,,,,,,,,,,183.8131013000002,183.82916420000038,184.52865939999992,184.51286470000014,1,184.52458690000003,184.52865939999992,184.52865939999992,185.02926350000052,185.02926350000052,185.01281650000055,None,185.01286960000016,185.01290150000023,None,,,,,,,,,,,,,007,001,2026-01-28_15h59.42.276,NESC3137_EEG_experiment,,2025.1.1,59.9663468862097,2026-01-28 16h00.19.980177 -0400,
127,0,127,None,None,,,,,127,0,127,0,185.02926350000052,,,,,,,,,,,,,,,,,,,,185.01313550000032,185.02926350000052,185.56258760000037,185.54646420000063,2,185.5577583000004,185.56258760000037,185.56258760000037,186.0626957000004,186.0626957000004,186.04653020000023,None,186.04657899999984,186.04661149999993,None,,,,,,,,,,,,,007,001,2026-01-28_15h59.42.276,NESC3137_EEG_experiment,,2025.1.1,59.9663468862097,2026-01-28 16h00.19.980177 -0400,
128,0,128,None,None,,,,,128,0,128,0,186.0626957000004,,,,,,,,,,,,,,,,,,,,186.04687100000046,186.0626957000004,186.91193610000028,186.89629270000023,2,186.90994839999985,186.91193610000028,186.91193610000028,187.4127309000005,187.4127309000005,187.3962121000004,None,187.39625109999997,187.3962693000003,None,,,,,,,,,,,,,007,001,2026-01-28_15h59.42.276,NESC3137_EEG_experiment,,2025.1.1,59.9663468862097,2026-01-28 16h00.19.980177 -0400,
129,0,129,None,None,,,,,129,0,129,0,187.4127309000005,,,,,,,,,,,,,,,,,,,,187.3964133999998,187.4127309000005,188.26193049999983,188.2461546000004,2,188.25938060000044,188.26193049999983,188.26193049999983,188.76275440000063,188.76275440000063,188.74620070000037,None,188.74626070000068,188.7462956999998,None,,,,,,,,,,,,,007,001,2026-01-28_15h59.42.276,NESC3137_EEG_experiment,,2025.1.1,59.9663468862097,2026-01-28 16h00.19.980177 -0400,
130,0,130,None,None,,,,,130,0,130,0,188.76275440000063,,,,,,,,,,,,,,,,,,,,188.74648390000038,188.76275440000063,189.74526270000024,189.7294363000001,1,189.74152830000003,189.74526270000024,189.74526270000024,190.24592800000028,190.24592800000028,190.22955430000002,None,190.2296223000003,190.2296538999999,None,,,,,,,,,,,,,007,001,2026-01-28_15h59.42.276,NESC3137_EEG_experiment,,2025.1.1,59.9663468862097,2026-01-28 16h00.19.980177 -0400,
131,0,131,None,None,,,,,131,0,131,0,190.24592800000028,,,,,,,,,,,,,,,,,,,,190.22984240000005,190.24592800000028,191.09571420000066,191.0794493000003,2,191.09222210000007,191.09571420000066,191.09571420000066,191.5959872000003,191.5959872000003,191.5795433000003,None,191.57960150000054,191.5796358000007,None,,,,,,,,,,,,,007,001,2026-01-28_15h59.42.276,NESC3137_EEG_experiment,,2025.1.1,59.9663468862097,2026-01-28 16h00.19.980177 -0400,
132,0,132,None,None,,,,,132,0,132,0,191.5959872000003,,,,,,,,,,,,,,,,,,,,191.57983390000027,191.5959872000003,192.57869160000064,192.56281320000016,2,192.5756119000007,192.57869160000064,192.57869160000064,193.07916440000008,193.07916440000008,193.0623295000005,None,193.06238310000026,193.06241620000037,None,,,,,,,,,,,,,007,001,2026-01-28_15h59.42.276,NESC3137_EEG_experiment,,2025.1.1,59.9663468862097,2026-01-28 16h00.19.980177 -0400,
133,0,133,None,None,,,,,133,0,133,0,193.07916440000008,,,,,,,,,,,,,,,,,,,,193.0626054000004,193.07916440000008,193.6953822000005,193.6794828000002,2,193.6916312000003,193.6953822000005,193.6953822000005,194.19605600000068,194.19605600000068,194.17963659999987,None,194.17968960000053,194.17972220000047,None,,,,,,,,,,,,,007,001,2026-01-28_15h59.42.276,NESC3137_EEG_experiment,,2025.1.1,59.9663468862097,2026-01-28 16h00.19.980177 -0400,
134,0,134,None,None,,,,,134,0,134,0,194.19605600000068,,,,,,,,,,,,,,,,,,,,194.17991130000064,194.19605600000068,195.09554180000032,195.0793819999999,2,195.09196229999998,195.09554180000032,195.09554180000032,,,195.5794863000001,None,195.57954430000063,195.57957910000005,None,,,,,,,,,,,,,007,001,2026-01-28_15h59.42.276,NESC3137_EEG_experiment,,2025.1.1,59.9663468862097,2026-01-28 16h00.19.980177 -0400,
135,0,135,None,None,,,,,135,0,135,0,195.59546990000035,,,,,,,,,,,,,,,,,,,,195.5797646000001,195.59546990000035,196.51198400000067,196.49561220000032,1,196.50696700000026,196.51198400000067,196.51198400000067,197.01203050000004,197.01203050000004,196.99560999999994,None,196.99566330000016,196.99569560000054,None,,,,,,,,,,,,,007,001,2026-01-28_15h59.42.276,NESC3137_EEG_experiment,,2025.1.1,59.9663468862097,2026-01-28 16h00.19.980177 -0400,
136,0,136,None,None,,,,,136,0,136,0,197.01203050000004,,,,,,,,,,,,,,,,,,,,196.99588180000046,197.01203050000004,197.72870820000026,197.71228320000046,2,197.72472560000006,197.72870820000026,197.72870820000026,,,198.21289940000042,None,198.21301399999993,198.21305140000004,None,,,,,,,,,,,,,007,001,2026-01-28_15h59.42.276,NESC3137_EEG_experiment,,2025.1.1,59.9663468862097,2026-01-28 16h00.19.980177 -0400,
137,0,137,None,None,,,,,137,0,137,0,198.2293927999999,,,,,,,,,,,,,,,,,,,,198.2132730000003,198.2293927999999,198.89527700000053,198.87931149999986,2,198.8914620000005,198.89527700000053,198.89527700000053,,,199.37942350000048,None,199.37948480000068,199.3795215,None,,,,,,,,,,,,,007,001,2026-01-28_15h59.42.276,NESC3137_EEG_experiment,,2025.1.1,59.9663468862097,2026-01-28 16h00.19.980177 -0400,
138,0,138,down,None,0.44303149999996094,None,,,138,0,138,0,199.39588090000052,,,,,,,,,,,,,,,,,,,,199.37972249999984,199.39588090000052,200.16204990000006,200.1462220000003,2,200.15892910000002,200.16204990000006,200.16204990000006,200.66212110000015,200.66212110000015,200.6462317000005,down,200.64629280000008,200.64632489999985,None,0.44303149999996094,None,,,,,,,,,,,007,001,2026-01-28_15h59.42.276,NESC3137_EEG_experiment,,2025.1.1,59.9663468862097,2026-01-28 16h00.19.980177 -0400,
139,0,139,None,None,,,,,139,0,139,0,200.66212110000015,,,,,,,,,,,,,,,,,,,,200.64651400000002,200.66212110000015,201.4287675000005,201.41259270000046,2,201.42435920000025,201.4287675000005,201.4287675000005,,,201.91271140000026,None,201.91277179999997,201.91280370000004,None,,,,,,,,,,,,,007,001,2026-01-28_15h59.42.276,NESC3137_EEG_experiment,,2025.1.1,59.9663468862097,2026-01-28 16h00.19.980177 -0400,
140,0,140,None,None,,,,,140,0,140,0,201.92882439999994,,,,,,,,,,,,,,,,,,,,201.9129982000004,201.92882439999994,202.87902329999997,202.86326000000008,2,202.87603769999987,202.87902329999997,202.87902329999997,203.37877579999986,203.37877579999986,203.36243860000013,None,203.3624878999999,203.36252070000046,None,,,,,,,,,,,,,007,001,2026-01-28_15h59.42.276,NESC3137_EEG_experiment,,2025.1.1,59.9663468862097,2026-01-28 16h00.19.980177 -0400,
141,0,141,up,None,0.33046489999924233,None,,,141,0,141,0,203.37877579999986,,,,,,,,,,,,,,,,,,,,203.36269429999993,203.37877579999986,204.36247000000003,204.34623190000002,1,204.35757560000002,204.36247000000003,204.36247000000003,,,204.84636620000038,up,204.84643930000038,204.84647630000018,None,0.33046489999924233,None,,,,,,,,,,,007,001,2026-01-28_15h59.42.276,NESC3137_EEG_experiment,,2025.1.1,59.9663468862097,2026-01-28 16h00.19.980177 -0400,
142,0,142,up,None,0.4555521000002045,None,,,142,0,142,0,204.8620649000004,,,,,,,,,,,,,,,,,,,,204.8466900000003,204.8620649000004,205.4454153000006,205.42921770000066,1,205.44143440000062,205.4454153000006,205.4454153000006,,,205.92940559999988,up,205.9294675000001,205.92949469999985,None,0.4555521000002045,None,,,,,,,,,,,007,001,2026-01-28_15h59.42.276,NESC3137_EEG_experiment,,2025.1.1,59.9663468862097,2026-01-28 16h00.19.980177 -0400,
143,0,143,None,None,,,,,143,0,143,0,205.94592830000056,,,,,,,,,,,,,,,,,,,,205.92964910000046,205.94592830000056,206.5788038999999,206.5627970000005,2,206.5752809000005,206.5788038999999,206.5788038999999,,,207.06299170000057,None,207.06305330000032,207.06308910000007,None,,,,,,,,,,,,,007,001,2026-01-28_15h59.42.276,NESC3137_EEG_experiment,,2025.1.1,59.9663468862097,2026-01-28 16h00.19.980177 -0400,
144,0,144,None,None,,,,,144,0,144,0,207.07942020000064,,,,,,,,,,,,,,,,,,,,207.06330330000037,207.07942020000064,207.64545480000015,207.62942999999996,2,207.6418033,207.64545480000015,207.64545480000015,,,208.12961040000027,None,208.12968069999988,208.12971879999986,None,,,,,,,,,,,,,007,001,2026-01-28_15h59.42.276,NESC3137_EEG_experiment,,2025.1.1,59.9663468862097,2026-01-28 16h00.19.980177 -0400,
145,0,145,None,None,,,,,145,0,145,0,208.14622240000062,,,,,,,,,,,,,,,,,,,,208.1299237000003,208.14622240000062,208.87854020000032,208.86279640000066,2,208.87485280000055,208.87854020000032,208.87854020000032,209.37917340000058,209.37917340000058,209.3623576,None,209.36242180000045,209.3624563000003,None,,,,,,,,,,,,,007,001,2026-01-28_15h59.42.276,NESC3137_EEG_experiment,,2025.1.1,59.9663468862097,2026-01-28 16h00.19.980177 -0400,
146,0,146,None,None,,,,,146,0,146,0,209.37917340000058,,,,,,,,,,,,,,,,,,,,209.36264780000056,209.37917340000058,210.0618400000003,210.0460162999998,1,210.05837200000042,210.0618400000003,210.0618400000003,210.56206920000022,210.56206920000022,210.5461922000004,None,210.54624010000043,210.54627280000022,None,,,,,,,,,,,,,007,001,2026-01-28_15h59.42.276,NESC3137_EEG_experiment,,2025.1.1,59.9663468862097,2026-01-28 16h00.19.980177 -0400,
147,0,147,None,None,,,,,147,0,147,0,210.56206920000022,,,,,,,,,,,,,,,,,,,,210.5464490000004,210.56206920000022,211.54554590000043,211.52976040000067,2,211.5421735,211.54554590000043,211.54554590000043,212.04538740000044,212.04538740000044,212.02937030000066,None,212.02942500000063,212.02946280000015,None,,,,,,,,,,,,,007,001,2026-01-28_15h59.42.276,NESC3137_EEG_experiment,,2025.1.1,59.9663468862097,2026-01-28 16h00.19.980177 -0400,
148,0,148,up,None,0.4249450000006618,None,,,148,0,148,0,212.04538740000044,,,,,,,,,,,,,,,,,,,,212.02964920000068,212.04538740000044,212.81199190000007,212.79603260000022,1,212.8085617000006,212.81199190000007,212.81199190000007,213.31258460000026,213.31258460000026,213.2956795,up,213.29573940000046,213.29577190000055,None,0.4249450000006618,None,,,,,,,,,,,007,001,2026-01-28_15h59.42.276,NESC3137_EEG_experiment,,2025.1.1,59.9663468862097,2026-01-28 16h00.19.980177 -0400,
149,0,149,None,None,,,,,149,0,149,0,213.31258460000026,,,,,,,,,,,,,,,,,,,,213.29597590000049,213.31258460000026,214.21315500000037,214.19610300000022,2,214.2103003000002,214.21315500000037,214.21315500000037,,,214.6963609000004,None,214.69643350000024,214.6964724999998,None,,,,,,,,,,,,,007,001,2026-01-28_15h59.42.276,NESC3137_EEG_experiment,,2025.1.1,59.9663468862097,2026-01-28 16h00.19.980177 -0400,
150,0,150,None,None,,,,,150,0,150,0,214.71210810000048,,,,,,,,,,,,,,,,,,,,214.69673340000008,214.71210810000048,215.3619478999999,215.34606729999996,2,215.35863789999985,215.3619478999999,215.3619478999999,,,215.84618190000037,None,215.84624369999983,215.8462829,None,,,,,,,,,,,,,007,001,2026-01-28_15h59.42.276,NESC3137_EEG_experiment,,2025.1.1,59.9663468862097,2026-01-28 16h00.19.980177 -0400,
151,0,151,None,None,,,,,151,0,151,0,215.86247640000056,,,,,,,,,,,,,,,,,,,,215.84653979999985,215.86247640000056,216.44606590000058,216.42968999999994,1,216.4402725,216.44606590000058,216.44606590000058,216.94589520000045,216.94589520000045,216.9292045000002,None,216.9292575999998,216.92929080000067,None,,,,,,,,,,,,,007,001,2026-01-28_15h59.42.276,NESC3137_EEG_experiment,,2025.1.1,59.9663468862097,2026-01-28 16h00.19.980177 -0400,
152,0,152,None,None,,,,,152,0,152,0,216.94589520000045,,,,,,,,,,,,,,,,,,,,216.92949860000044,216.94589520000045,217.46250430000055,217.44626610000068,2,217.45723660000021,217.46250430000055,217.46250430000055,217.96282520000022,217.96282520000022,217.94633070000054,None,217.94637779999994,217.9463964000006,None,,,,,,,,,,,,,007,001,2026-01-28_15h59.42.276,NESC3137_EEG_experiment,,2025.1.1,59.9663468862097,2026-01-28 16h00.19.980177 -0400,
153,0,153,None,None,,,,,153,0,153,0,217.96282520000022,,,,,,,,,,,,,,,,,,,,217.94653600000038,217.96282520000022,218.5791132000004,218.5626972,2,218.57423740000013,218.5791132000004,218.5791132000004,219.07940409999992,219.07940409999992,219.06291909999982,None,219.0629729000002,219.06300680000004,None,,,,,,,,,,,,,007,001,2026-01-28_15h59.42.276,NESC3137_EEG_experiment,,2025.1.1,59.9663468862097,2026-01-28 16h00.19.980177 -0400,
154,0,154,down,None,0.41957879999972647,None,,,154,0,154,0,219.07940409999992,,,,,,,,,,,,,,,,,,,,219.06319729999996,219.07940409999992,219.7292010000001,219.71298780000052,2,219.7236526000006,219.7292010000001,219.7292010000001,220.2292494000003,220.2292494000003,220.2129630999998,down,220.21302730000025,220.2130605000002,None,0.41957879999972647,None,,,,,,,,,,,007,001,2026-01-28_15h59.42.276,NESC3137_EEG_experiment,,2025.1.1,59.9663468862097,2026-01-28 16h00.19.980177 -0400,
155,0,155,None,None,,,,,155,0,155,0,220.2292494000003,,,,,,,,,,,,,,,,,,,,220.21326829999998,220.2292494000003,221.19535670000005,221.1796473000004,2,221.19195730000047,221.19535670000005,221.19535670000005,221.6961826000006,221.6961826000006,221.67974510000022,None,221.67980669999997,221.67984419999993,None,,,,,,,,,,,,,007,001,2026-01-28_15h59.42.276,NESC3137_EEG_experiment,,2025.1.1,59.9663468862097,2026-01-28 16h00.19.980177 -0400,
156,0,156,up,None,0.4166912000000593,None,,,156,0,156,0,221.6961826000006,,,,,,,,,,,,,,,,,,,,221.68008390000068,221.6961826000006,222.4123429000001,222.39619540000058,1,222.40807029999996,222.4123429000001,222.4123429000001,222.91236800000024,222.91236800000024,222.89587350000056,up,222.8959365999999,222.8959703999999,None,0.4166912000000593,None,,,,,,,,,,,007,001,2026-01-28_15h59.42.276,NESC3137_EEG_experiment,,2025.1.1,59.9663468862097,2026-01-28 16h00.19.980177 -0400,
157,0,157,None,None,,,,,157,0,157,0,222.91236800000024,,,,,,,,,,,,,,,,,,,,222.89616000000024,222.91236800000024,223.4625098000006,223.4465237000004,1,223.45760250000058,223.4625098000006,223.4625098000006,223.96282930000052,223.96282930000052,223.9465237000004,None,223.94656829999985,223.9465865000002,None,,,,,,,,,,,,,007,001,2026-01-28_15h59.42.276,NESC3137_EEG_experiment,,2025.1.1,59.9663468862097,2026-01-28 16h00.19.980177 -0400,
158,0,158,None,None,,,,,158,0,158,0,223.96282930000052,,,,,,,,,,,,,,,,,,,,223.94671970000036,223.96282930000052,224.7792470000004,224.7630521000001,1,224.77640789999987,224.7792470000004,224.7792470000004,225.2792341000004,225.2792341000004,225.26250160000018,None,225.26255740000033,225.2625908,None,,,,,,,,,,,,,007,001,2026-01-28_15h59.42.276,NESC3137_EEG_experiment,,2025.1.1,59.9663468862097,2026-01-28 16h00.19.980177 -0400,
159,0,159,None,None,,,,,159,0,159,0,225.2792341000004,,,,,,,,,,,,,,,,,,,,225.26280540000062,225.2792341000004,226.06198510000013,226.04649289999998,2,226.0580673000004,226.06198510000013,226.06198510000013,226.5624373999999,226.5624373999999,226.54601720000028,None,226.5460705000005,226.5461052999999,None,,,,,,,,,,,,,007,001,2026-01-28_15h59.42.276,NESC3137_EEG_experiment,,2025.1.1,59.9663468862097,2026-01-28 16h00.19.980177 -0400,
160,0,160,None,None,,,,,160,0,160,0,226.5624373999999,,,,,,,,,,,,,,,,,,,,226.54629410000052,226.5624373999999,227.14532570000028,227.12937630000033,2,227.14143140000033,227.14532570000028,227.14532570000028,227.64594970000053,227.64594970000053,227.6294936000004,None,227.62955060000058,227.6295841000001,None,,,,,,,,,,,,,007,001,2026-01-28_15h59.42.276,NESC3137_EEG_experiment,,2025.1.1,59.9663468862097,2026-01-28 16h00.19.980177 -0400,
161,0,161,None,None,,,,,161,0,161,0,227.64594970000053,,,,,,,,,,,,,,,,,,,,227.62978160000057,227.64594970000053,228.42875860000004,228.41303200000038,1,228.42460050000045,228.42875860000004,228.42875860000004,228.9293064000003,228.9293064000003,228.91273480000018,None,228.91278460000012,228.91281620000063,None,,,,,,,,,,,,,007,001,2026-01-28_15h59.42.276,NESC3137_EEG_experiment,,2025.1.1,59.9663468862097,2026-01-28 16h00.19.980177 -0400,
162,0,162,None,None,,,,,162,0,162,0,228.9293064000003,,,,,,,,,,,,,,,,,,,,228.9129952000003,228.9293064000003,229.52920330000052,229.51280570000017,2,229.52371940000012,229.52920330000052,229.52920330000052,230.02877650000028,230.02877650000028,230.01288879999993,None,230.01293830000031,230.0129705999998,None,,,,,,,,,,,,,007,001,2026-01-28_15h59.42.276,NESC3137_EEG_experiment,,2025.1.1,59.9663468862097,2026-01-28 16h00.19.980177 -0400,
163,0,163,None,None,,,,,163,0,163,0,230.02877650000028,,,,,,,,,,,,,,,,,,,,230.0131492999999,230.02877650000028,230.79579360000025,230.77966650000053,2,230.7908879000006,230.79579360000025,230.79579360000025,231.29588680000052,231.29588680000052,231.27960489999987,None,231.27967320000062,231.27970689999984,None,,,,,,,,,,,,,007,001,2026-01-28_15h59.42.276,NESC3137_EEG_experiment,,2025.1.1,59.9663468862097,2026-01-28 16h00.19.980177 -0400,
164,0,164,down,None,0.4291427999996813,None,,,164,0,164,0,231.29588680000052,,,,,,,,,,,,,,,,,,,,231.27990709999995,231.29588680000052,232.2957311,232.27959920000012,2,232.2909911000006,232.2957311,232.2957311,232.79574289999982,232.79574289999982,232.77959650000048,down,232.7796583999998,232.77968959999998,None,0.4291427999996813,None,,,,,,,,,,,007,001,2026-01-28_15h59.42.276,NESC3137_EEG_experiment,,2025.1.1,59.9663468862097,2026-01-28 16h00.19.980177 -0400,
165,0,165,down,None,0.34419720000005327,None,,,165,0,165,0,232.79574289999982,,,,,,,,,,,,,,,,,,,,232.7798956000006,232.79574289999982,233.62873519999994,233.61272760000065,2,233.6246639000001,233.62873519999994,233.62873519999994,234.12870639999983,234.12870639999983,234.11269840000023,down,234.11275840000053,234.1127907,None,0.34419720000005327,None,,,,,,,,,,,007,001,2026-01-28_15h59.42.276,NESC3137_EEG_experiment,,2025.1.1,59.9663468862097,2026-01-28 16h00.19.980177 -0400,
166,0,166,None,None,,,,,166,0,166,0,234.12870639999983,,,,,,,,,,,,,,,,,,,,234.11298110000007,234.12870639999983,234.6624382,234.64620819999982,2,234.65771490000043,234.6624382,234.6624382,235.16285160000007,235.16285160000007,235.1459087000003,None,235.14595220000047,235.14597279999998,None,,,,,,,,,,,,,007,001,2026-01-28_15h59.42.276,NESC3137_EEG_experiment,,2025.1.1,59.9663468862097,2026-01-28 16h00.19.980177 -0400,
167,0,167,up,None,0.380531400000109,None,,,167,0,167,0,235.16285160000007,,,,,,,,,,,,,,,,,,,,235.1461079999999,235.16285160000007,235.9123298000004,235.89638860000014,1,235.90798840000025,235.9123298000004,235.9123298000004,236.41202890000022,236.41202890000022,236.39601240000047,up,236.3960745000004,236.39610549999998,None,0.380531400000109,None,,,,,,,,,,,007,001,2026-01-28_15h59.42.276,NESC3137_EEG_experiment,,2025.1.1,59.9663468862097,2026-01-28 16h00.19.980177 -0400,
168,0,168,down,None,0.4456614000000627,None,,,168,0,168,0,236.41202890000022,,,,,,,,,,,,,,,,,,,,236.39629240000068,236.41202890000022,237.09523830000035,237.07941860000028,1,237.09102990000065,237.09523830000035,237.09523830000035,237.59575120000045,237.59575120000045,237.57886790000066,down,237.57892770000035,237.57895869999993,None,0.4456614000000627,None,,,,,,,,,,,007,001,2026-01-28_15h59.42.276,NESC3137_EEG_experiment,,2025.1.1,59.9663468862097,2026-01-28 16h00.19.980177 -0400,
169,0,169,None,None,,,,,169,0,169,0,237.59575120000045,,,,,,,,,,,,,,,,,,,,237.5791452000003,237.59575120000045,238.5620985000005,238.5456905000001,1,238.55909430000065,238.5620985000005,238.5620985000005,,,239.0464652999999,None,239.0465462000002,239.04658300000028,None,,,,,,,,,,,,,007,001,2026-01-28_15h59.42.276,NESC3137_EEG_experiment,,2025.1.1,59.9663468862097,2026-01-28 16h00.19.980177 -0400,
170,0,170,None,None,,,,,170,0,170,0,239.06253730000026,,,,,,,,,,,,,,,,,,,,239.04678500000045,239.06253730000026,240.01206679999996,239.99617020000005,2,240.0079824000004,240.01206679999996,240.01206679999996,240.5125246000007,240.5125246000007,240.4960882000005,None,240.49614680000013,240.49617940000007,None,,,,,,,,,,,,,007,001,2026-01-28_15h59.42.276,NESC3137_EEG_experiment,,2025.1.1,59.9663468862097,2026-01-28 16h00.19.980177 -0400,
171,0,171,up,None,0.3868419000000358,None,,,171,0,171,0,240.5125246000007,,,,,,,,,,,,,,,,,,,,240.49638640000012,240.5125246000007,241.36195700000007,241.3461728000002,1,241.35882000000038,241.36195700000007,241.36195700000007,241.86258090000047,241.86258090000047,241.84575750000022,up,241.8458172999999,241.84584859999995,None,0.3868419000000358,None,,,,,,,,,,,007,001,2026-01-28_15h59.42.276,NESC3137_EEG_experiment,,2025.1.1,59.9663468862097,2026-01-28 16h00.19.980177 -0400,
172,0,172,None,None,,,,,172,0,172,0,241.86258090000047,,,,,,,,,,,,,,,,,,,,241.84607070000038,241.86258090000047,242.6624212000006,242.64616670000032,2,242.6569352000006,242.6624212000006,242.6624212000006,243.16245100000015,243.16245100000015,243.14561380000032,None,243.14566660000037,243.1456988,None,,,,,,,,,,,,,007,001,2026-01-28_15h59.42.276,NESC3137_EEG_experiment,,2025.1.1,59.9663468862097,2026-01-28 16h00.19.980177 -0400,
173,0,173,up,None,0.4277484000003824,None,,,173,0,173,0,243.16245100000015,,,,,,,,,,,,,,,,,,,,243.14592340000036,243.16245100000015,243.94523900000058,243.92896650000057,1,243.94125070000064,243.94523900000058,243.94523900000058,,,244.42922120000003,up,244.4292919999998,244.42932800000017,None,0.4277484000003824,None,,,,,,,,,,,007,001,2026-01-28_15h59.42.276,NESC3137_EEG_experiment,,2025.1.1,59.9663468862097,2026-01-28 16h00.19.980177 -0400,
174,0,174,None,None,,,,,174,0,174,0,244.44584960000066,,,,,,,,,,,,,,,,,,,,244.42954410000038,244.44584960000066,245.44555130000026,245.42967769999996,1,245.44201580000026,245.44555130000026,245.44555130000026,245.94585460000053,245.94585460000053,245.92945550000059,None,245.92950870000004,245.9295407999998,None,,,,,,,,,,,,,007,001,2026-01-28_15h59.42.276,NESC3137_EEG_experiment,,2025.1.1,59.9663468862097,2026-01-28 16h00.19.980177 -0400,
175,0,175,None,None,,,,,175,0,175,0,245.94585460000053,,,,,,,,,,,,,,,,,,,,245.92974229999982,245.94585460000053,246.69521669999995,246.67929860000004,1,246.6907167999998,246.69521669999995,246.69521669999995,247.19538760000069,247.19538760000069,247.17907670000022,None,247.1791258000003,247.17915840000023,None,,,,,,,,,,,,,007,001,2026-01-28_15h59.42.276,NESC3137_EEG_experiment,,2025.1.1,59.9663468862097,2026-01-28 16h00.19.980177 -0400,
176,0,176,up,None,0.4199460999998337,None,,,176,0,176,0,247.19538760000069,,,,,,,,,,,,,,,,,,,,247.17933790000006,247.19538760000069,247.9288120000001,247.9122539,1,247.92500410000048,247.9288120000001,247.9288120000001,,,248.41258900000048,up,248.4126597000004,248.41269569999986,None,0.4199460999998337,None,,,,,,,,,,,007,001,2026-01-28_15h59.42.276,NESC3137_EEG_experiment,,2025.1.1,59.9663468862097,2026-01-28 16h00.19.980177 -0400,
177,0,177,None,None,,,,,177,0,177,0,248.42876479999995,,,,,,,,,,,,,,,,,,,,248.4128948000007,248.42876479999995,249.42851260000043,249.4126796999999,2,249.42568740000024,249.42851260000043,249.42851260000043,,,249.91290920000029,None,249.9129810000004,249.91301740000017,None,,,,,,,,,,,,,007,001,2026-01-28_15h59.42.276,NESC3137_EEG_experiment,,2025.1.1,59.9663468862097,2026-01-28 16h00.19.980177 -0400,
178,0,178,None,None,,,,,178,0,178,0,249.92923969999993,,,,,,,,,,,,,,,,,,,,249.91322170000058,249.92923969999993,250.52856390000034,250.5128338000004,2,250.5242502000001,250.52856390000034,250.52856390000034,251.02923760000067,251.02923760000067,251.01276080000025,None,251.01281550000022,251.01284750000013,None,,,,,,,,,,,,,007,001,2026-01-28_15h59.42.276,NESC3137_EEG_experiment,,2025.1.1,59.9663468862097,2026-01-28 16h00.19.980177 -0400,
179,0,179,down,None,0.08366109999951732,0.175898600000437,,,179,0,179,0,251.02923760000067,,,,,,,,,,,,,,,,,,,,251.01303869999992,251.02923760000067,251.54535990000022,251.52932200000032,2,251.54114420000042,251.54535990000022,251.54535990000022,,,252.02959530000044,down,252.02967570000055,252.02972020000016,None,0.08366109999951732,0.175898600000437,,,,,,,,,,,007,001,2026-01-28_15h59.42.276,NESC3137_EEG_experiment,,2025.1.1,59.9663468862097,2026-01-28 16h00.19.980177 -0400,
180,0,180,None,None,,,,,180,0,180,0,252.04604050000034,,,,,,,,,,,,,,,,,,,,252.02994930000023,252.04604050000034,252.7286254999999,252.7123400999999,1,252.72364520000065,252.7286254999999,252.7286254999999,,,253.21264630000042,None,253.2126962000002,253.21271840000009,None,,,,,,,,,,,,,007,001,2026-01-28_15h59.42.276,NESC3137_EEG_experiment,,2025.1.1,59.9663468862097,2026-01-28 16h00.19.980177 -0400,
181,0,181,up,None,0.29889249999996537,0.1521167000000787,,,181,0,181,0,253.22935400000006,,,,,,,,,,,,,,,,,,,,253.21290540000064,253.22935400000006,253.9619177000004,253.94603689999985,2,253.9575617999999,253.9619177000004,253.9619177000004,254.46251949999987,254.46251949999987,254.4462236999998,up,254.44627800000035,254.44629720000012,None,0.29889249999996537,0.1521167000000787,,,,,,,,,,,007,001,2026-01-28_15h59.42.276,NESC3137_EEG_experiment,,2025.1.1,59.9663468862097,2026-01-28 16h00.19.980177 -0400,
182,0,182,down,None,0.37623379999968165,None,,,182,0,182,0,254.46251949999987,,,,,,,,,,,,,,,,,,,,254.44642810000005,254.46251949999987,255.22865480000019,255.21262500000012,1,255.22380440000052,255.22865480000019,255.22865480000019,,,255.71279610000056,down,255.71284939999987,255.7128704000006,None,0.37623379999968165,None,,,,,,,,,,,007,001,2026-01-28_15h59.42.276,NESC3137_EEG_experiment,,2025.1.1,59.9663468862097,2026-01-28 16h00.19.980177 -0400,
183,0,183,None,None,,,,,183,0,183,0,255.72946970000066,,,,,,,,,,,,,,,,,,,,255.71301980000044,255.72946970000066,256.47886430000017,256.4627169000005,2,256.47509830000035,256.47886430000017,256.47886430000017,256.97862220000025,256.97862220000025,256.9626668000001,None,256.96273290000045,256.9627666000006,None,,,,,,,,,,,,,007,001,2026-01-28_15h59.42.276,NESC3137_EEG_experiment,,2025.1.1,59.9663468862097,2026-01-28 16h00.19.980177 -0400,
184,0,184,None,None,,,,,184,0,184,0,256.97862220000025,,,,,,,,,,,,,,,,,,,,256.96295700000064,256.97862220000025,257.74524199999996,257.7289212000005,2,257.74016850000044,257.74524199999996,257.74524199999996,,,258.22950390000005,None,258.22958930000004,258.2296298000001,None,,,,,,,,,,,,,007,001,2026-01-28_15h59.42.276,NESC3137_EEG_experiment,,2025.1.1,59.9663468862097,2026-01-28 16h00.19.980177 -0400,
185,0,185,None,None,,,,,185,0,185,0,258.2460775999998,,,,,,,,,,,,,,,,,,,,258.2298541,258.2460775999998,258.8790661000003,258.86274760000015,1,258.87470720000056,258.8790661000003,258.8790661000003,,,259.3630382000001,None,259.3631101000001,259.36314780000066,None,,,,,,,,,,,,,007,001,2026-01-28_15h59.42.276,NESC3137_EEG_experiment,,2025.1.1,59.9663468862097,2026-01-28 16h00.19.980177 -0400,
186,0,186,None,None,,,,,186,0,186,0,259.3794856000004,,,,,,,,,,,,,,,,,,,,259.3633303000006,259.3794856000004,260.34543660000054,260.3296356000001,1,260.34168769999997,260.34543660000054,260.34543660000054,260.8457957999999,260.8457957999999,260.82910340000035,None,260.8291571999998,260.82918920000066,None,,,,,,,,,,,,,007,001,2026-01-28_15h59.42.276,NESC3137_EEG_experiment,,2025.1.1,59.9663468862097,2026-01-28 16h00.19.980177 -0400,
187,0,187,None,None,,,,,187,0,187,0,260.8457957999999,,,,,,,,,,,,,,,,,,,,260.82936560000053,260.8457957999999,261.71238170000015,261.69641480000064,2,261.7077349000001,261.71238170000015,261.71238170000015,262.21201329999985,262.21201329999985,262.1964716000002,None,262.19652589999987,262.19655930000044,None,,,,,,,,,,,,,007,001,2026-01-28_15h59.42.276,NESC3137_EEG_experiment,,2025.1.1,59.9663468862097,2026-01-28 16h00.19.980177 -0400,
188,0,188,None,None,,,,,188,0,188,0,262.21201329999985,,,,,,,,,,,,,,,,,,,,262.1967407000002,262.21201329999985,262.9953470999999,262.9792886000005,1,262.9911167,262.9953470999999,262.9953470999999,263.4961363000002,263.4961363000002,263.47929230000045,None,263.4793391000003,263.4793596999998,None,,,,,,,,,,,,,007,001,2026-01-28_15h59.42.276,NESC3137_EEG_experiment,,2025.1.1,59.9663468862097,2026-01-28 16h00.19.980177 -0400,
189,0,189,None,None,,,,,189,0,189,0,263.4961363000002,,,,,,,,,,,,,,,,,,,,263.4795266000001,263.4961363000002,264.27906130000065,264.2631115000004,1,264.2744977000002,264.27906130000065,264.27906130000065,264.77868130000024,264.77868130000024,264.7626258999999,None,264.7626779000002,264.7627097000004,None,,,,,,,,,,,,,007,001,2026-01-28_15h59.42.276,NESC3137_EEG_experiment,,2025.1.1,59.9663468862097,2026-01-28 16h00.19.980177 -0400,
190,0,190,None,None,,,,,190,0,190,0,264.77868130000024,,,,,,,,,,,,,,,,,,,,264.7628979000001,264.77868130000024,265.61250010000003,265.59607060000053,1,265.60692480000034,265.61250010000003,265.61250010000003,266.1124223000006,266.1124223000006,266.0960378,None,266.0960920000007,266.09612350000043,None,,,,,,,,,,,,,007,001,2026-01-28_15h59.42.276,NESC3137_EEG_experiment,,2025.1.1,59.9663468862097,2026-01-28 16h00.19.980177 -0400,
191,0,191,None,None,,,,,191,0,191,0,266.1124223000006,,,,,,,,,,,,,,,,,,,,266.0963124,266.1124223000006,266.6618298000003,266.64575650000006,1,266.6577729999999,266.6618298000003,266.6618298000003,,,267.1460360000001,None,267.1461113000005,267.1461530000006,None,,,,,,,,,,,,,007,001,2026-01-28_15h59.42.276,NESC3137_EEG_experiment,,2025.1.1,59.9663468862097,2026-01-28 16h00.19.980177 -0400,
192,0,192,None,None,,,,,192,0,192,0,267.1627784000002,,,,,,,,,,,,,,,,,,,,267.1463911000001,267.1627784000002,267.8120206000003,267.7961202000006,1,267.80845769999996,267.8120206000003,267.8120206000003,268.3123349000007,268.3123349000007,268.29563250000047,None,268.29568650000056,268.2957206000001,None,,,,,,,,,,,,,007,001,2026-01-28_15h59.42.276,NESC3137_EEG_experiment,,2025.1.1,59.9663468862097,2026-01-28 16h00.19.980177 -0400,
193,0,193,None,None,,,,,193,0,193,0,268.3123349000007,,,,,,,,,,,,,,,,,,,,268.29592110000067,268.3123349000007,269.07914660000006,269.06250700000055,1,269.0750188000002,269.07914660000006,269.07914660000006,269.5793414999998,269.5793414999998,269.5625154999998,None,269.5625693000002,269.56260269999984,None,,,,,,,,,,,,,007,001,2026-01-28_15h59.42.276,NESC3137_EEG_experiment,,2025.1.1,59.9663468862097,2026-01-28 16h00.19.980177 -0400,
194,0,194,None,None,,,,,194,0,194,0,269.5793414999998,,,,,,,,,,,,,,,,,,,,269.56279059999997,269.5793414999998,270.3787825999998,270.36235020000004,2,270.3751143999998,270.3787825999998,270.3787825999998,,,270.8625922000001,None,270.8626438000001,270.8626656000006,None,,,,,,,,,,,,,007,001,2026-01-28_15h59.42.276,NESC3137_EEG_experiment,,2025.1.1,59.9663468862097,2026-01-28 16h00.19.980177 -0400,
195,0,195,down,None,0.4597962000007101,None,,,195,0,195,0,270.87869730000057,,,,,,,,,,,,,,,,,,,,270.8628190999998,270.87869730000057,271.5290203000004,271.51280339999994,2,271.5245539000007,271.5290203000004,271.5290203000004,,,272.0129353000002,down,272.01298899999983,272.0130098999998,None,0.4597962000007101,None,,,,,,,,,,,007,001,2026-01-28_15h59.42.276,NESC3137_EEG_experiment,,2025.1.1,59.9663468862097,2026-01-28 16h00.19.980177 -0400,
196,0,196,None,None,,,,,196,0,196,0,272.02940709999984,,,,,,,,,,,,,,,,,,,,272.0131611000006,272.02940709999984,272.9458202000005,272.9291608000003,1,272.9397125000005,272.9458202000005,272.9458202000005,273.4457812999999,273.4457812999999,273.4292335,None,273.4292866000005,273.42931769999996,None,,,,,,,,,,,,,007,001,2026-01-28_15h59.42.276,NESC3137_EEG_experiment,,2025.1.1,59.9663468862097,2026-01-28 16h00.19.980177 -0400,
197,0,197,None,None,,,,,197,0,197,0,273.4457812999999,,,,,,,,,,,,,,,,,,,,273.4295097000004,273.4457812999999,274.0130125000005,273.9964613000002,2,274.01034040000013,274.0130125000005,274.0130125000005,274.51257179999993,274.51257179999993,274.4956143999998,None,274.4956769999999,274.4957094000001,None,,,,,,,,,,,,,007,001,2026-01-28_15h59.42.276,NESC3137_EEG_experiment,,2025.1.1,59.9663468862097,2026-01-28 16h00.19.980177 -0400,
198,0,198,None,None,,,,,198,0,198,0,274.51257179999993,,,,,,,,,,,,,,,,,,,,274.49586929999987,274.51257179999993,275.47856279999996,275.46269910000046,2,275.4744651000001,275.47856279999996,275.47856279999996,275.9793384000004,275.9793384000004,275.96267369999987,None,275.9627281000003,275.96276149999994,None,,,,,,,,,,,,,007,001,2026-01-28_15h59.42.276,NESC3137_EEG_experiment,,2025.1.1,59.9663468862097,2026-01-28 16h00.19.980177 -0400,
199,0,199,None,None,,,,,199,0,199,0,275.9793384000004,,,,,,,,,,,,,,,,,,,,275.96294860000035,275.9793384000004,276.5951608000005,276.57931310000004,1,276.5915861000003,276.5951608000005,276.5951608000005,,,277.07954960000006,None,277.0796115000003,277.07964919999995,None,,,,,,,,,,,,,007,001,2026-01-28_15h59.42.276,NESC3137_EEG_experiment,,2025.1.1,59.9663468862097,2026-01-28 16h00.19.980177 -0400,
200,0,200,None,space,,,5.062364200000047,None,200,0,200,0,277.0958371000006,,,,,,,,,,,,,,,,,,,,277.0798556999998,277.0958371000006,277.778558,277.7628685999998,1,277.7746947000005,277.778558,277.778558,278.27951440000015,278.27951440000015,278.26279310000064,None,278.2628463000001,313.3296105999998,space,,,278.27951440000015,308.26247109999986,308.26247109999986,308.2786765000001,5.062364200000047,None,,,,,007,001,2026-01-28_15h59.42.276,NESC3137_EEG_experiment,,2025.1.1,59.9663468862097,2026-01-28 16h00.19.980177 -0400,
201,0,201,None,None,,,,,201,0,201,0,313.34569830000055,,,,,,,,,,,,,,,,,,,,313.3298120999998,313.34569830000055,314.02903349999997,314.0124655999998,2,314.02335029999995,314.02903349999997,314.02903349999997,,,314.5127585,None,314.5128392000006,314.51287740000043,None,,,,,,,,,,,,,007,001,2026-01-28_15h59.42.276,NESC3137_EEG_experiment,,2025.1.1,59.9663468862097,2026-01-28 16h00.19.980177 -0400,
202,0,202,None,None,,,,,202,0,202,0,314.5291600999999,,,,,,,,,,,,,,,,,,,,314.5130902000001,314.5291600999999,315.06180330000007,315.04597060000015,1,315.05879259999983,315.06180330000007,315.06180330000007,315.5624929000005,315.5624929000005,315.5460358,None,315.54607790000045,315.54609600000003,None,,,,,,,,,,,,,007,001,2026-01-28_15h59.42.276,NESC3137_EEG_experiment,,2025.1.1,59.9663468862097,2026-01-28 16h00.19.980177 -0400,
203,0,203,None,None,,,,,203,0,203,0,315.5624929000005,,,,,,,,,,,,,,,,,,,,315.54624500000045,315.5624929000005,316.17915900000025,316.16252729999997,2,316.1741055000002,316.17915900000025,316.17915900000025,,,316.6628169000005,None,316.6628803000003,316.66291340000043,None,,,,,,,,,,,,,007,001,2026-01-28_15h59.42.276,NESC3137_EEG_experiment,,2025.1.1,59.9663468862097,2026-01-28 16h00.19.980177 -0400,
204,0,204,up,None,0.4639093000005232,None,,,204,0,204,0,316.67948909999996,,,,,,,,,,,,,,,,,,,,316.6630973000001,316.67948909999996,317.62896590000037,317.6129179999998,1,317.6243107999999,317.62896590000037,317.62896590000037,318.1290912000004,318.1290912000004,318.11261840000043,up,318.1126804000005,318.1127129000006,None,0.4639093000005232,None,,,,,,,,,,,007,001,2026-01-28_15h59.42.276,NESC3137_EEG_experiment,,2025.1.1,59.9663468862097,2026-01-28 16h00.19.980177 -0400,
205,0,205,None,None,,,,,205,0,205,0,318.1290912000004,,,,,,,,,,,,,,,,,,,,318.11290030000055,318.1290912000004,318.96187310000005,318.9462156999998,1,318.95865589999994,318.96187310000005,318.96187310000005,319.4625958000006,319.4625958000006,319.4461102000005,None,319.4461730000003,319.44620600000053,None,,,,,,,,,,,,,007,001,2026-01-28_15h59.42.276,NESC3137_EEG_experiment,,2025.1.1,59.9663468862097,2026-01-28 16h00.19.980177 -0400,
206,0,206,None,None,,,,,206,0,206,0,319.4625958000006,,,,,,,,,,,,,,,,,,,,319.44639689999985,319.4625958000006,320.14540810000017,320.1296329000006,2,320.1410912000001,320.14540810000017,320.14540810000017,320.6458425000001,320.6458425000001,320.62933990000056,None,320.6293908000007,320.6294207000001,None,,,,,,,,,,,,,007,001,2026-01-28_15h59.42.276,NESC3137_EEG_experiment,,2025.1.1,59.9663468862097,2026-01-28 16h00.19.980177 -0400,
207,0,207,None,None,,,,,207,0,207,0,320.6458425000001,,,,,,,,,,,,,,,,,,,,320.62959480000063,320.6458425000001,321.17863579999994,321.1623534999999,2,321.17440780000015,321.17863579999994,321.17863579999994,,,321.6625248999999,None,321.66257660000065,321.66259830000035,None,,,,,,,,,,,,,007,001,2026-01-28_15h59.42.276,NESC3137_EEG_experiment,,2025.1.1,59.9663468862097,2026-01-28 16h00.19.980177 -0400,
208,0,208,None,None,,,,,208,0,208,0,321.67915340000036,,,,,,,,,,,,,,,,,,,,321.6627638,321.67915340000036,322.19531860000006,322.1793477000001,1,322.19165500000054,322.19531860000006,322.19531860000006,322.69563819999985,322.69563819999985,322.6793011,None,322.6793520000001,322.6793922000006,None,,,,,,,,,,,,,007,001,2026-01-28_15h59.42.276,NESC3137_EEG_experiment,,2025.1.1,59.9663468862097,2026-01-28 16h00.19.980177 -0400,
209,0,209,None,None,,,,,209,0,209,0,322.69563819999985,,,,,,,,,,,,,,,,,,,,322.6795723000005,322.69563819999985,323.29527320000034,323.2792135999998,1,323.2909840000002,323.29527320000034,323.29527320000034,,,323.7793894000006,None,323.77944240000033,323.77946620000057,None,,,,,,,,,,,,,007,001,2026-01-28_15h59.42.276,NESC3137_EEG_experiment,,2025.1.1,59.9663468862097,2026-01-28 16h00.19.980177 -0400,
210,0,210,None,None,,,,,210,0,210,0,323.7959191,,,,,,,,,,,,,,,,,,,,323.77961740000046,323.7959191,324.66185589999986,324.6455046000001,1,324.6566679000007,324.66185589999986,324.66185589999986,,,325.14582510000037,None,325.1458814000007,325.1459048000006,None,,,,,,,,,,,,,007,001,2026-01-28_15h59.42.276,NESC3137_EEG_experiment,,2025.1.1,59.9663468862097,2026-01-28 16h00.19.980177 -0400,
211,0,211,None,None,,,,,211,0,211,0,325.16281100000015,,,,,,,,,,,,,,,,,,,,325.1460958000007,325.16281100000015,325.6953185000002,325.67930890000025,1,325.69035859999985,325.6953185000002,325.6953185000002,,,326.17939280000064,None,326.1794398000002,326.17946140000004,None,,,,,,,,,,,,,007,001,2026-01-28_15h59.42.276,NESC3137_EEG_experiment,,2025.1.1,59.9663468862097,2026-01-28 16h00.19.980177 -0400,
212,0,212,None,None,,,,,212,0,212,0,326.19568270000036,,,,,,,,,,,,,,,,,,,,326.1795966999998,326.19568270000036,327.14521180000065,327.1289588999998,2,327.14070600000014,327.14521180000065,327.14521180000065,,,327.62927579999996,None,327.6293622000003,327.62941240000055,None,,,,,,,,,,,,,007,001,2026-01-28_15h59.42.276,NESC3137_EEG_experiment,,2025.1.1,59.9663468862097,2026-01-28 16h00.19.980177 -0400,
213,0,213,up,None,0.4383964999997261,None,,,213,0,213,0,327.64526900000055,,,,,,,,,,,,,,,,,,,,327.62961520000044,327.64526900000055,328.46237500000007,328.44632510000065,1,328.45725649999986,328.46237500000007,328.46237500000007,328.96251930000017,328.96251930000017,328.94623580000007,up,328.9463000000005,328.9463357000004,None,0.4383964999997261,None,,,,,,,,,,,007,001,2026-01-28_15h59.42.276,NESC3137_EEG_experiment,,2025.1.1,59.9663468862097,2026-01-28 16h00.19.980177 -0400,
214,0,214,None,None,,,,,214,0,214,0,328.96251930000017,,,,,,,,,,,,,,,,,,,,328.94653410000046,328.96251930000017,329.8286699999999,329.81272530000024,2,329.82435540000006,329.8286699999999,329.8286699999999,330.3286063000005,330.3286063000005,330.3126652000001,None,330.3127267,330.31275860000005,None,,,,,,,,,,,,,007,001,2026-01-28_15h59.42.276,NESC3137_EEG_experiment,,2025.1.1,59.9663468862097,2026-01-28 16h00.19.980177 -0400,
215,0,215,None,None,,,,,215,0,215,0,330.3286063000005,,,,,,,,,,,,,,,,,,,,330.312946,330.3286063000005,331.04554220000045,331.0294436000004,2,331.0415810000004,331.04554220000045,331.04554220000045,331.54594910000014,331.54594910000014,331.52940320000016,None,331.52945180000006,331.52947050000057,None,,,,,,,,,,,,,007,001,2026-01-28_15h59.42.276,NESC3137_EEG_experiment,,2025.1.1,59.9663468862097,2026-01-28 16h00.19.980177 -0400,
216,0,216,None,None,,,,,216,0,216,0,331.54594910000014,,,,,,,,,,,,,,,,,,,,331.52960170000006,331.54594910000014,332.09528300000056,332.0791358000006,2,332.0911939000007,332.09528300000056,332.09528300000056,332.5957626999998,332.5957626999998,332.57885010000064,None,332.57890320000024,332.5789349000006,None,,,,,,,,,,,,,007,001,2026-01-28_15h59.42.276,NESC3137_EEG_experiment,,2025.1.1,59.9663468862097,2026-01-28 16h00.19.980177 -0400,
217,0,217,None,None,,,,,217,0,217,0,332.5957626999998,,,,,,,,,,,,,,,,,,,,332.57915070000035,332.5957626999998,333.37871730000006,333.3628537000004,2,333.37500830000045,333.37871730000006,333.37871730000006,333.87890870000047,333.87890870000047,333.86227750000035,None,333.86232460000065,333.8623559000007,None,,,,,,,,,,,,,007,001,2026-01-28_15h59.42.276,NESC3137_EEG_experiment,,2025.1.1,59.9663468862097,2026-01-28 16h00.19.980177 -0400,
218,0,218,down,None,0.46361739999974816,None,,,218,0,218,0,333.87890870000047,,,,,,,,,,,,,,,,,,,,333.8625312000004,333.87890870000047,334.3971824999999,334.3794426000004,2,334.3942151000001,334.3971824999999,334.3971824999999,,,334.89584230000037,down,334.89591199999995,334.8959491000005,None,0.46361739999974816,None,,,,,,,,,,,007,001,2026-01-28_15h59.42.276,NESC3137_EEG_experiment,,2025.1.1,59.9663468862097,2026-01-28 16h00.19.980177 -0400,
219,0,219,None,None,,,,,219,0,219,0,334.9118626999998,,,,,,,,,,,,,,,,,,,,334.8961516999998,334.9118626999998,335.8124630000002,335.79642930000045,1,335.8073697,335.8124630000002,335.8124630000002,336.3124684000004,336.3124684000004,336.29607060000035,None,336.29613530000006,336.2961728,None,,,,,,,,,,,,,007,001,2026-01-28_15h59.42.276,NESC3137_EEG_experiment,,2025.1.1,59.9663468862097,2026-01-28 16h00.19.980177 -0400,
220,0,220,down,None,0.40534720000050584,None,,,220,0,220,0,336.3124684000004,,,,,,,,,,,,,,,,,,,,336.2963614999999,336.3124684000004,337.2954448999999,337.27947140000015,2,337.2918854999998,337.2954448999999,337.2954448999999,337.7953326000006,337.7953326000006,337.77889719999985,down,337.7789588000005,337.77899140000045,None,0.40534720000050584,None,,,,,,,,,,,007,001,2026-01-28_15h59.42.276,NESC3137_EEG_experiment,,2025.1.1,59.9663468862097,2026-01-28 16h00.19.980177 -0400,
221,0,221,None,None,,,,,221,0,221,0,337.7953326000006,,,,,,,,,,,,,,,,,,,,337.77918540000064,337.7953326000006,338.4784668000002,338.46215610000036,2,338.4741191000003,338.4784668000002,338.4784668000002,,,338.96245200000067,None,338.9625212000001,338.9625661,None,,,,,,,,,,,,,007,001,2026-01-28_15h59.42.276,NESC3137_EEG_experiment,,2025.1.1,59.9663468862097,2026-01-28 16h00.19.980177 -0400,
222,0,222,up,None,0.4355404999996608,None,,,222,0,222,0,338.97861770000054,,,,,,,,,,,,,,,,,,,,338.96279070000037,338.97861770000054,339.54529530000036,339.52910370000063,1,339.5406055000003,339.54529530000036,339.54529530000036,340.0458714000006,340.0458714000006,340.0287943000003,up,340.0288539000003,340.0288860999999,None,0.4355404999996608,None,,,,,,,,,,,007,001,2026-01-28_15h59.42.276,NESC3137_EEG_experiment,,2025.1.1,59.9663468862097,2026-01-28 16h00.19.980177 -0400,
223,0,223,down,None,0.41553490000023885,None,,,223,0,223,0,340.0458714000006,,,,,,,,,,,,,,,,,,,,340.0290749000005,340.0458714000006,340.8452275999998,340.8294175000001,2,340.8421661000002,340.8452275999998,340.8452275999998,341.3462306000001,341.3462306000001,341.32934939999996,down,341.3294093000004,341.32942920000005,None,0.41553490000023885,None,,,,,,,,,,,007,001,2026-01-28_15h59.42.276,NESC3137_EEG_experiment,,2025.1.1,59.9663468862097,2026-01-28 16h00.19.980177 -0400,
224,0,224,up,None,0.3915222999994512,None,,,224,0,224,0,341.3462306000001,,,,,,,,,,,,,,,,,,,,341.3295556000003,341.3462306000001,342.04527770000004,342.0298874,1,342.0422116,342.04527770000004,342.04527770000004,342.5456740999998,342.5456740999998,342.52940709999984,up,342.52946969999994,342.5295022,None,0.3915222999994512,None,,,,,,,,,,,007,001,2026-01-28_15h59.42.276,NESC3137_EEG_experiment,,2025.1.1,59.9663468862097,2026-01-28 16h00.19.980177 -0400,
