thisN,thisTrialN,thisRepN,key_resp_3.keys,key_resp_4.keys,key_resp_3.rt,key_resp_3.duration,key_resp_4.rt,key_resp_4.duration,trials.thisRepN,trials.thisTrialN,trials.thisN,trials.thisIndex,thisRow.t,notes,lsl_stream.started,lsl_stream.stopped,setup.started,setup.stopped,welcome.started,welcomeimg.started,key_resp.started,welcome.stopped,key_resp.keys,key_resp.rt,key_resp.duration,instruction.started,instructionimg.started,key_resp_2.started,instruction.stopped,key_resp_2.keys,key_resp_2.rt,key_resp_2.duration,fixation.started,cross.started,cross.stopped,fixation.stopped,trigger,face.started,faceStim.started,key_resp_3.started,faceStim.stopped,key_resp_3.stopped,face.stopped,trials.key_resp_3.keys,break_2.started,break_2.stopped,trials.key_resp_4.keys,trials.key_resp_3.rt,trials.key_resp_3.duration,breakimg.started,breakimg.stopped,break2img.started,key_resp_4.started,trials.key_resp_4.rt,trials.key_resp_4.duration,end.started,finish.started,finish.stopped,end.stopped,participant,session,date,expName,expVersion,psychopyVersion,frameRate,expStart,
,,,,,,,,,,,,,,,0.010600600013276562,0.01068900000245776,,,,,,,,,,,,,,,,,,,,,,,,,,,,,,,,,,,,,,,,,,,,004,001,2026-01-21_16h49.36.689,NESC3137_EEG_experiment,,2025.1.1,130.58478478756987,2026-01-21 16h49.55.785297 -0400,
,,,,,,,,,,,,,,,,,0.010716400007368065,0.010753300011856481,,,,,,,,,,,,,,,,,,,,,,,,,,,,,,,,,,,,,,,,,,004,001,2026-01-21_16h49.36.689,NESC3137_EEG_experiment,,2025.1.1,130.58478478756987,2026-01-21 16h49.55.785297 -0400,
,,,,,,,,,,,,,,,,,,,0.010830400002305396,0.014309800011687912,0.014309800011687912,3.2967418000043835,space,3.276103399999556,None,,,,,,,,,,,,,,,,,,,,,,,,,,,,,,,,,,,004,001,2026-01-21_16h49.36.689,NESC3137_EEG_experiment,,2025.1.1,130.58478478756987,2026-01-21 16h49.55.785297 -0400,
,,,,,,,,,,,,,,,,,,,,,,,,,,3.296775800001342,3.3006607000133954,3.3006607000133954,16.84355940000387,space,13.541590200009523,None,,,,,,,,,,,,,,,,,,,,,,,,,,,,004,001,2026-01-21_16h49.36.689,NESC3137_EEG_experiment,,2025.1.1,130.58478478756987,2026-01-21 16h49.55.785297 -0400,
0,0,0,None,None,,,,,0,0,0,0,16.84983400000783,,,,,,,,,,,,,,,,,,,,16.846016200011945,16.84983400000783,17.689955400011968,17.684325500013074,2,17.68636730000435,17.689955400011968,17.689955400011968,18.18381020000379,18.18381020000379,18.176430999999866,None,18.176476800013916,18.176507300013327,None,,,,,,,,,,,,,004,001,2026-01-21_16h49.36.689,NESC3137_EEG_experiment,,2025.1.1,130.58478478756987,2026-01-21 16h49.55.785297 -0400,
1,0,1,down,None,0.4766586999903666,None,,,1,0,1,0,18.18381020000379,,,,,,,,,,,,,,,,,,,,18.17667510001047,18.18381020000379,19.03745040000649,19.031016700013424,2,19.033210200010217,19.03745040000649,19.03745040000649,19.53125650000584,19.53125650000584,19.524291600013385,down,19.524344100005692,19.52437220000138,None,0.4766586999903666,None,,,,,,,,,,,004,001,2026-01-21_16h49.36.689,NESC3137_EEG_experiment,,2025.1.1,130.58478478756987,2026-01-21 16h49.55.785297 -0400,
2,0,2,down,None,0.35619340000266675,0.11207109999668319,,,2,0,2,0,19.53125650000584,,,,,,,,,,,,,,,,,,,,19.524539800011553,19.53125650000584,20.405949500011047,20.39936540000781,2,20.401829500013264,20.405949500011047,20.405949500011047,20.899198900006013,20.899198900006013,20.892620600003283,down,20.892680900011328,20.892708100000164,None,0.35619340000266675,0.11207109999668319,,,,,,,,,,,004,001,2026-01-21_16h49.36.689,NESC3137_EEG_experiment,,2025.1.1,130.58478478756987,2026-01-21 16h49.55.785297 -0400,
3,0,3,None,None,,,,,3,0,3,0,20.899198900006013,,,,,,,,,,,,,,,,,,,,20.89287460000196,20.899198900006013,21.773970700000064,21.767975599999772,1,21.770363400006318,21.773970700000064,21.773970700000064,22.267659900011495,22.267659900011495,22.26071140001295,None,22.260762300007627,22.26079300000856,None,,,,,,,,,,,,,004,001,2026-01-21_16h49.36.689,NESC3137_EEG_experiment,,2025.1.1,130.58478478756987,2026-01-21 16h49.55.785297 -0400,
4,0,4,down,None,0.4322532000078354,None,,,4,0,4,0,22.267659900011495,,,,,,,,,,,,,,,,,,,,22.26098640001146,22.267659900011495,23.065952400007518,23.059104200001457,2,23.06135390000418,23.065952400007518,23.065952400007518,23.559572500002105,23.559572500002105,23.55248960001336,down,23.552550700012944,23.552571000007447,None,0.4322532000078354,None,,,,,,,,,,,004,001,2026-01-21_16h49.36.689,NESC3137_EEG_experiment,,2025.1.1,130.58478478756987,2026-01-21 16h49.55.785297 -0400,
5,0,5,up,None,0.3868171999929473,None,,,5,0,5,0,23.559572500002105,,,,,,,,,,,,,,,,,,,,23.55273350000789,23.559572500002105,24.08759990001272,24.080140700010816,1,24.082599400004256,24.08759990001272,24.08759990001272,24.580524800010608,24.580524800010608,24.574107100008405,up,24.574164300007396,24.574193899999955,None,0.3868171999929473,None,,,,,,,,,,,004,001,2026-01-21_16h49.36.689,NESC3137_EEG_experiment,,2025.1.1,130.58478478756987,2026-01-21 16h49.55.785297 -0400,
6,0,6,down,None,0.3593778999929782,None,,,6,0,6,0,24.580524800010608,,,,,,,,,,,,,,,,,,,,24.57437000000209,24.580524800010608,25.538791500002844,25.532055900010164,2,25.53386940000928,25.538791500002844,25.538791500002844,26.03210830000171,26.03210830000171,26.025019000007887,down,26.02507719999994,26.02510600000096,None,0.3593778999929782,None,,,,,,,,,,,004,001,2026-01-21_16h49.36.689,NESC3137_EEG_experiment,,2025.1.1,130.58478478756987,2026-01-21 16h49.55.785297 -0400,
7,0,7,down,None,0.36314270000730176,None,,,7,0,7,0,26.03210830000171,,,,,,,,,,,,,,,,,,,,26.025304300012067,26.03210830000171,26.823382100003073,26.817292800013092,2,26.819490900001256,26.823382100003073,26.823382100003073,27.31626910000341,27.31626910000341,27.311202200013213,down,27.311259400012204,27.311289000004763,None,0.36314270000730176,None,,,,,,,,,,,004,001,2026-01-21_16h49.36.689,NESC3137_EEG_experiment,,2025.1.1,130.58478478756987,2026-01-21 16h49.55.785297 -0400,
8,0,8,up,None,0.4540643999935128,None,,,8,0,8,0,27.31626910000341,,,,,,,,,,,,,,,,,,,,27.31149480000022,27.31626910000341,27.9001711000019,27.893613200008986,1,27.895429900003364,27.9001711000019,27.9001711000019,28.393624800010002,28.393624800010002,28.38715890000458,up,28.387240200012457,28.387270400009584,None,0.4540643999935128,None,,,,,,,,,,,004,001,2026-01-21_16h49.36.689,NESC3137_EEG_experiment,,2025.1.1,130.58478478756987,2026-01-21 16h49.55.785297 -0400,
9,0,9,None,None,,,,,9,0,9,0,28.393624800010002,,,,,,,,,,,,,,,,,,,,28.38743400000385,28.393624800010002,29.046220700009144,29.039572500012582,1,29.04257810000854,29.046220700009144,29.046220700009144,29.54033060000802,29.54033060000802,29.53277820000949,None,29.532830700001796,29.532858500009752,None,,,,,,,,,,,,,004,001,2026-01-21_16h49.36.689,NESC3137_EEG_experiment,,2025.1.1,130.58478478756987,2026-01-21 16h49.55.785297 -0400,
10,0,10,up,None,0.4537373000057414,None,,,10,0,10,0,29.54033060000802,,,,,,,,,,,,,,,,,,,,29.53304890000436,29.54033060000802,30.47666680000839,30.470389900001464,1,30.47275570000056,30.47666680000839,30.47666680000839,30.969804899999872,30.969804899999872,30.96316410000145,up,30.96321960000205,30.963248800006113,None,0.4537373000057414,None,,,,,,,,,,,004,001,2026-01-21_16h49.36.689,NESC3137_EEG_experiment,,2025.1.1,130.58478478756987,2026-01-21 16h49.55.785297 -0400,
11,0,11,up,None,0.3384316999872681,0.11845950000861194,,,11,0,11,0,30.969804899999872,,,,,,,,,,,,,,,,,,,,30.96342569999979,30.969804899999872,31.92133320000721,31.914755200006766,1,31.917120300000533,31.92133320000721,31.92133320000721,32.41464230000565,32.41464230000565,32.40750530001242,up,32.40756240001065,32.40759240000625,None,0.3384316999872681,0.11845950000861194,,,,,,,,,,,004,001,2026-01-21_16h49.36.689,NESC3137_EEG_experiment,,2025.1.1,130.58478478756987,2026-01-21 16h49.55.785297 -0400,
12,0,12,up,None,0.331688899997971,0.11962810000113677,,,12,0,12,0,32.41464230000565,,,,,,,,,,,,,,,,,,,,32.40777340000204,32.41464230000565,33.3667848000041,33.359733400007826,1,33.361593800000264,33.3667848000041,33.3667848000041,33.85927630000515,33.85927630000515,33.8521929000126,up,33.85225650000211,33.85228720000305,None,0.331688899997971,0.11962810000113677,,,,,,,,,,,004,001,2026-01-21_16h49.36.689,NESC3137_EEG_experiment,,2025.1.1,130.58478478756987,2026-01-21 16h49.55.785297 -0400,
13,0,13,up,None,0.34703620000800584,0.10435460000007879,,,13,0,13,0,33.85927630000515,,,,,,,,,,,,,,,,,,,,33.85247330000857,33.85927630000515,34.567307200006326,34.56083539999963,1,34.56304340000497,34.567307200006326,34.567307200006326,35.060276000003796,35.060276000003796,35.055993900008616,up,35.05606160000025,35.056091700011166,None,0.34703620000800584,0.10435460000007879,,,,,,,,,,,004,001,2026-01-21_16h49.36.689,NESC3137_EEG_experiment,,2025.1.1,130.58478478756987,2026-01-21 16h49.55.785297 -0400,
14,0,14,up,None,0.38155010000627954,None,,,14,0,14,0,35.060276000003796,,,,,,,,,,,,,,,,,,,,35.05633690000104,35.060276000003796,35.63731970000663,35.63036410001223,1,35.63215350000246,35.63731970000663,35.63731970000663,36.13008930000069,36.13008930000069,36.12403410000843,up,36.12409040000057,36.124116100007086,None,0.38155010000627954,None,,,,,,,,,,,004,001,2026-01-21_16h49.36.689,NESC3137_EEG_experiment,,2025.1.1,130.58478478756987,2026-01-21 16h49.55.785297 -0400,
15,0,15,up,None,0.3562326999963261,0.11832340000546537,,,15,0,15,0,36.13008930000069,,,,,,,,,,,,,,,,,,,,36.12429710000288,36.13008930000069,37.095584900001995,37.089166500009014,1,37.09155910000845,37.095584900001995,37.095584900001995,37.589077800003,37.589077800003,37.582355500009726,up,37.582421500002965,37.5824513000116,None,0.3562326999963261,0.11832340000546537,,,,,,,,,,,004,001,2026-01-21_16h49.36.689,NESC3137_EEG_experiment,,2025.1.1,130.58478478756987,2026-01-21 16h49.55.785297 -0400,
16,0,16,down,None,0.36907100000826176,None,,,16,0,16,0,37.589077800003,,,,,,,,,,,,,,,,,,,,37.58266180001374,37.589077800003,38.193215999999666,38.186254500004,2,38.188536200003,38.193215999999666,38.193215999999666,38.68672830000287,38.68672830000287,38.681012300003204,down,38.68107140000211,38.68110230000457,None,0.36907100000826176,None,,,,,,,,,,,004,001,2026-01-21_16h49.36.689,NESC3137_EEG_experiment,,2025.1.1,130.58478478756987,2026-01-21 16h49.55.785297 -0400,
17,0,17,down,None,0.307947499997681,0.11192169999412727,,,17,0,17,0,38.68672830000287,,,,,,,,,,,,,,,,,,,,38.681262900005095,38.68672830000287,39.32622450000781,39.31884120000177,2,39.32129160000477,39.32622450000781,39.32622450000781,39.8194177000114,39.8194177000114,39.81245560001116,down,39.812498100000084,39.81251909999992,None,0.307947499997681,0.11192169999412727,,,,,,,,,,,004,001,2026-01-21_16h49.36.689,NESC3137_EEG_experiment,,2025.1.1,130.58478478756987,2026-01-21 16h49.55.785297 -0400,
18,0,18,up,None,0.4354648000007728,None,,,18,0,18,0,39.8194177000114,,,,,,,,,,,,,,,,,,,,39.812651600004756,39.8194177000114,40.34264630000689,40.33434890001081,1,40.33659770000668,40.34264630000689,40.34264630000689,40.83226120000472,40.83226120000472,40.82574780000141,up,40.82580700000108,40.82584050000878,None,0.4354648000007728,None,,,,,,,,,,,004,001,2026-01-21_16h49.36.689,NESC3137_EEG_experiment,,2025.1.1,130.58478478756987,2026-01-21 16h49.55.785297 -0400,
19,0,19,up,None,0.3441573000018252,0.12817060000088532,,,19,0,19,0,40.83226120000472,,,,,,,,,,,,,,,,,,,,40.82608150001033,40.83226120000472,41.418161000008695,41.41039490001276,1,41.41293570000562,41.418161000008695,41.418161000008695,41.90935140001238,41.90935140001238,41.903266900000744,up,41.90332340000896,41.90335340000456,None,0.3441573000018252,0.12817060000088532,,,,,,,,,,,004,001,2026-01-21_16h49.36.689,NESC3137_EEG_experiment,,2025.1.1,130.58478478756987,2026-01-21 16h49.55.785297 -0400,
20,0,20,down,None,0.4245848999998998,None,,,20,0,20,0,41.90935140001238,,,,,,,,,,,,,,,,,,,,41.90353980001237,41.90935140001238,42.769853300007526,42.763764900009846,2,42.76574950000213,42.769853300007526,42.769853300007526,43.26470290000725,43.26470290000725,43.25793390000763,down,43.2579953000095,43.25802510000358,None,0.4245848999998998,None,,,,,,,,,,,004,001,2026-01-21_16h49.36.689,NESC3137_EEG_experiment,,2025.1.1,130.58478478756987,2026-01-21 16h49.55.785297 -0400,
21,0,21,up,None,0.31277590000536293,0.11984129999473225,,,21,0,21,0,43.26470290000725,,,,,,,,,,,,,,,,,,,,43.25821070000529,43.26470290000725,44.14550830000371,44.13889880001079,1,44.14137500000652,44.14550830000371,44.14550830000371,44.63855030000559,44.63855030000559,44.631844800009276,up,44.63189240000793,44.63191130000632,None,0.31277590000536293,0.11984129999473225,,,,,,,,,,,004,001,2026-01-21_16h49.36.689,NESC3137_EEG_experiment,,2025.1.1,130.58478478756987,2026-01-21 16h49.55.785297 -0400,
22,0,22,up,None,0.3836655999912182,None,,,22,0,22,0,44.63855030000559,,,,,,,,,,,,,,,,,,,,44.63205620000372,44.63855030000559,45.24262720000115,45.23607830000401,1,45.238430600002175,45.24262720000115,45.24262720000115,45.73611970001366,45.73611970001366,45.729189000005135,up,45.72923000001174,45.72924800000328,None,0.3836655999912182,None,,,,,,,,,,,004,001,2026-01-21_16h49.36.689,NESC3137_EEG_experiment,,2025.1.1,130.58478478756987,2026-01-21 16h49.55.785297 -0400,
23,0,23,up,None,0.41750409999804106,None,,,23,0,23,0,45.73611970001366,,,,,,,,,,,,,,,,,,,,45.72937300000922,45.73611970001366,46.59279280000192,46.58511120000912,1,46.587957600000664,46.59279280000192,46.59279280000192,47.08421720001206,47.08421720001206,47.07703750001383,up,47.077098000008846,47.077126200005296,None,0.41750409999804106,None,,,,,,,,,,,004,001,2026-01-21_16h49.36.689,NESC3137_EEG_experiment,,2025.1.1,130.58478478756987,2026-01-21 16h49.55.785297 -0400,
24,0,24,up,None,0.39300950001052115,0.07994270000199322,,,24,0,24,0,47.08421720001206,,,,,,,,,,,,,,,,,,,,47.07731390000845,47.08421720001206,47.889432000010856,47.88235440000426,1,47.88462799999979,47.889432000010856,47.889432000010856,48.383244900003774,48.383244900003774,48.375588900002185,up,48.37563870000304,48.37565800000448,None,0.39300950001052115,0.07994270000199322,,,,,,,,,,,004,001,2026-01-21_16h49.36.689,NESC3137_EEG_experiment,,2025.1.1,130.58478478756987,2026-01-21 16h49.55.785297 -0400,
25,0,25,down,None,0.41008730001340155,None,,,25,0,25,0,48.383244900003774,,,,,,,,,,,,,,,,,,,,48.375805900010164,48.383244900003774,49.27219290001085,49.26565830000618,2,49.268468800000846,49.27219290001085,49.27219290001085,49.7656924000039,49.7656924000039,49.7582870000042,down,49.75835490001191,49.75838480000675,None,0.41008730001340155,None,,,,,,,,,,,004,001,2026-01-21_16h49.36.689,NESC3137_EEG_experiment,,2025.1.1,130.58478478756987,2026-01-21 16h49.55.785297 -0400,
26,0,26,None,None,,,,,26,0,26,0,49.7656924000039,,,,,,,,,,,,,,,,,,,,49.75860160001321,49.7656924000039,50.344232100003865,50.33559050000622,2,50.33841910000774,50.344232100003865,50.344232100003865,50.834093700002995,50.834093700002995,50.82838730000367,None,50.82844140000816,50.8284735000052,None,,,,,,,,,,,,,004,001,2026-01-21_16h49.36.689,NESC3137_EEG_experiment,,2025.1.1,130.58478478756987,2026-01-21 16h49.55.785297 -0400,
27,0,27,down,None,0.33955499999865424,0.0797523000073852,,,27,0,27,0,50.834093700002995,,,,,,,,,,,,,,,,,,,,50.828677600002266,50.834093700002995,51.59087470000668,51.585132800013525,2,51.58739620000415,51.59087470000668,51.59087470000668,52.084110700001474,52.084110700001474,52.07730810000794,down,52.07735110000067,52.07736880000448,None,0.33955499999865424,0.0797523000073852,,,,,,,,,,,004,001,2026-01-21_16h49.36.689,NESC3137_EEG_experiment,,2025.1.1,130.58478478756987,2026-01-21 16h49.55.785297 -0400,
28,0,28,down,None,0.38543850000132807,None,,,28,0,28,0,52.084110700001474,,,,,,,,,,,,,,,,,,,,52.077497500009486,52.084110700001474,52.584742900013225,52.57825960000628,2,52.58089219999965,52.584742900013225,52.584742900013225,53.077150700002676,53.077150700002676,53.070688500010874,down,53.07074160000775,53.070764200005215,None,0.38543850000132807,None,,,,,,,,,,,004,001,2026-01-21_16h49.36.689,NESC3137_EEG_experiment,,2025.1.1,130.58478478756987,2026-01-21 16h49.55.785297 -0400,
29,0,29,up,None,0.34581379999872297,None,,,29,0,29,0,53.077150700002676,,,,,,,,,,,,,,,,,,,,53.07090310000058,53.077150700002676,53.696473600008176,53.68852130000596,1,53.6907707000064,53.696473600008176,53.696473600008176,54.187879700009944,54.187879700009944,54.182528900011675,up,54.18257830000948,54.18259680000483,None,0.34581379999872297,None,,,,,,,,,,,004,001,2026-01-21_16h49.36.689,NESC3137_EEG_experiment,,2025.1.1,130.58478478756987,2026-01-21 16h49.55.785297 -0400,
30,0,30,down,None,0.440597600012552,None,,,30,0,30,0,54.187879700009944,,,,,,,,,,,,,,,,,,,,54.18277220000164,54.187879700009944,55.097638700011885,55.091736500005936,2,55.09438170000794,55.097638700011885,55.097638700011885,55.59108690000721,55.59108690000721,55.58447950000118,down,55.58453420001024,55.58456330001354,None,0.440597600012552,None,,,,,,,,,,,004,001,2026-01-21_16h49.36.689,NESC3137_EEG_experiment,,2025.1.1,130.58478478756987,2026-01-21 16h49.55.785297 -0400,
31,0,31,up,None,0.42785759999242146,None,,,31,0,31,0,55.59108690000721,,,,,,,,,,,,,,,,,,,,55.58473310001136,55.59108690000721,56.28633170000103,56.279256300011184,1,56.282198400003836,56.28633170000103,56.28633170000103,56.77920620000805,56.77920620000805,56.77179360001173,up,56.77184980000311,56.77187820000108,None,0.42785759999242146,None,,,,,,,,,,,004,001,2026-01-21_16h49.36.689,NESC3137_EEG_experiment,,2025.1.1,130.58478478756987,2026-01-21 16h49.55.785297 -0400,
32,0,32,down,None,0.38648279999324586,None,,,32,0,32,0,56.77920620000805,,,,,,,,,,,,,,,,,,,,56.77204840000195,56.77920620000805,57.36924550001277,57.3629792000138,2,57.36585830000695,57.36924550001277,57.36924550001277,57.8638084000122,57.8638084000122,57.85597320001398,down,57.85602520000248,57.85607430001255,None,0.38648279999324586,None,,,,,,,,,,,004,001,2026-01-21_16h49.36.689,NESC3137_EEG_experiment,,2025.1.1,130.58478478756987,2026-01-21 16h49.55.785297 -0400,
33,0,33,up,None,0.30370309999852907,0.1283955000108108,,,33,0,33,0,57.8638084000122,,,,,,,,,,,,,,,,,,,,57.85621310000715,57.8638084000122,58.62647529999958,58.62081670000043,1,58.623060600002646,58.62647529999958,58.62647529999958,59.119497500010766,59.119497500010766,59.11283600000024,up,59.11290170000575,59.11293220000516,None,0.30370309999852907,0.1283955000108108,,,,,,,,,,,004,001,2026-01-21_16h49.36.689,NESC3137_EEG_experiment,,2025.1.1,130.58478478756987,2026-01-21 16h49.55.785297 -0400,
34,0,34,down,None,0.4000173999957042,None,,,34,0,34,0,59.119497500010766,,,,,,,,,,,,,,,,,,,,59.11313450000307,59.119497500010766,59.995678300008876,59.98787120000634,2,59.989782500008005,59.995678300008876,59.995678300008876,60.48850710000261,60.48850710000261,60.482444400011445,down,60.482503700011875,60.48252480001247,None,0.4000173999957042,None,,,,,,,,,,,004,001,2026-01-21_16h49.36.689,NESC3137_EEG_experiment,,2025.1.1,130.58478478756987,2026-01-21 16h49.55.785297 -0400,
35,0,35,up,None,0.31688860000576824,0.10376459998951759,,,35,0,35,0,60.48850710000261,,,,,,,,,,,,,,,,,,,,60.482709100004286,60.48850710000261,61.34957150000264,61.343512400009786,1,61.34592330000305,61.34957150000264,61.34957150000264,61.842281800010824,61.842281800010824,61.83529920000001,up,61.83534520000103,61.83536350000941,None,0.31688860000576824,0.10376459998951759,,,,,,,,,,,004,001,2026-01-21_16h49.36.689,NESC3137_EEG_experiment,,2025.1.1,130.58478478756987,2026-01-21 16h49.55.785297 -0400,
36,0,36,up,None,0.4291286000079708,None,,,36,0,36,0,61.842281800010824,,,,,,,,,,,,,,,,,,,,61.835504300004686,61.842281800010824,62.45312570000533,62.44728390000819,1,62.449334600009024,62.45312570000533,62.45312570000533,62.94671490001201,62.94671490001201,62.939114700013306,up,62.93917140000849,62.93919980000646,None,0.4291286000079708,None,,,,,,,,,,,004,001,2026-01-21_16h49.36.689,NESC3137_EEG_experiment,,2025.1.1,130.58478478756987,2026-01-21 16h49.55.785297 -0400,
37,0,37,down,None,0.41046539999661036,None,,,37,0,37,0,62.94671490001201,,,,,,,,,,,,,,,,,,,,62.93937510000251,62.94671490001201,63.48802319999959,63.48145730000397,2,63.4838582000084,63.48802319999959,63.48802319999959,63.981062800012296,63.981062800012296,63.97466290000011,down,63.97471980001137,63.974749100001645,None,0.41046539999661036,None,,,,,,,,,,,004,001,2026-01-21_16h49.36.689,NESC3137_EEG_experiment,,2025.1.1,130.58478478756987,2026-01-21 16h49.55.785297 -0400,
38,0,38,down,None,0.43357489998743404,None,,,38,0,38,0,63.981062800012296,,,,,,,,,,,,,,,,,,,,63.974874900013674,63.981062800012296,64.74474320000445,64.73865120000846,2,64.74095260001195,64.74474320000445,64.74474320000445,65.23864090000279,65.23864090000279,65.23199700000987,down,65.23205910000252,65.23208780000277,None,0.43357489998743404,None,,,,,,,,,,,004,001,2026-01-21_16h49.36.689,NESC3137_EEG_experiment,,2025.1.1,130.58478478756987,2026-01-21 16h49.55.785297 -0400,
39,0,39,up,None,0.3636088000057498,None,,,39,0,39,0,65.23864090000279,,,,,,,,,,,,,,,,,,,,65.23226980000618,65.23864090000279,65.96733330001007,65.96059860000969,1,65.96289420001267,65.96733330001007,65.96733330001007,66.46124670001154,66.46124670001154,66.45411950000562,up,66.4541704000003,66.45419630000833,None,0.3636088000057498,None,,,,,,,,,,,004,001,2026-01-21_16h49.36.689,NESC3137_EEG_experiment,,2025.1.1,130.58478478756987,2026-01-21 16h49.55.785297 -0400,
40,0,40,up,None,0.35919790000480134,None,,,40,0,40,0,66.46124670001154,,,,,,,,,,,,,,,,,,,,66.45433190000767,66.46124670001154,67.41912620000949,67.4124637000059,1,67.41497900000832,67.41912620000949,67.41912620000949,67.91184000000067,67.91184000000067,67.90574130001187,up,67.9057909000112,67.90581170000951,None,0.35919790000480134,None,,,,,,,,,,,004,001,2026-01-21_16h49.36.689,NESC3137_EEG_experiment,,2025.1.1,130.58478478756987,2026-01-21 16h49.55.785297 -0400,
41,0,41,up,None,0.41812709999794606,None,,,41,0,41,0,67.91184000000067,,,,,,,,,,,,,,,,,,,,67.90596680001181,67.91184000000067,68.54429270001128,68.5376782000094,1,68.54016480001155,68.54429270001128,68.54429270001128,69.0378880000062,69.0378880000062,69.03037510000286,up,69.0304385000054,69.03047080000397,None,0.41812709999794606,None,,,,,,,,,,,004,001,2026-01-21_16h49.36.689,NESC3137_EEG_experiment,,2025.1.1,130.58478478756987,2026-01-21 16h49.55.785297 -0400,
42,0,42,up,None,0.3546399000042584,0.11996140000701416,,,42,0,42,0,69.0378880000062,,,,,,,,,,,,,,,,,,,,69.03065330001118,69.0378880000062,69.77580790000502,69.76799630001187,1,69.77078470001288,69.77580790000502,69.77580790000502,70.26680780001334,70.26680780001334,70.2605656000087,up,70.260626400006,70.26064560000668,None,0.3546399000042584,0.11996140000701416,,,,,,,,,,,004,001,2026-01-21_16h49.36.689,NESC3137_EEG_experiment,,2025.1.1,130.58478478756987,2026-01-21 16h49.55.785297 -0400,
43,0,43,down,None,0.45899280000594445,None,,,43,0,43,0,70.26680780001334,,,,,,,,,,,,,,,,,,,,70.26084610000544,70.26680780001334,71.07938300000387,71.0728378000058,2,71.07524790000753,71.07938300000387,71.07938300000387,71.57203890000528,71.57203890000528,71.56596740000532,down,71.56602660000499,71.56605850000051,None,0.45899280000594445,None,,,,,,,,,,,004,001,2026-01-21_16h49.36.689,NESC3137_EEG_experiment,,2025.1.1,130.58478478756987,2026-01-21 16h49.55.785297 -0400,
44,0,44,up,None,0.4274539000034565,None,,,44,0,44,0,71.57203890000528,,,,,,,,,,,,,,,,,,,,71.56624170001305,71.57203890000528,72.29478770001151,72.28884890000336,1,72.29160970001249,72.29478770001151,72.29478770001151,72.7879210000101,72.7879210000101,72.7814253000106,up,72.78149150000536,72.78152330000012,None,0.4274539000034565,None,,,,,,,,,,,004,001,2026-01-21_16h49.36.689,NESC3137_EEG_experiment,,2025.1.1,130.58478478756987,2026-01-21 16h49.55.785297 -0400,
45,0,45,None,None,,,,,45,0,45,0,72.7879210000101,,,,,,,,,,,,,,,,,,,,72.7817192000075,72.7879210000101,73.46132850000868,73.4554679000139,2,73.45814060000703,73.46132850000868,73.46132850000868,73.95507380001072,73.95507380001072,73.94798960001208,None,73.94803990000219,73.94807100000617,None,,,,,,,,,,,,,004,001,2026-01-21_16h49.36.689,NESC3137_EEG_experiment,,2025.1.1,130.58478478756987,2026-01-21 16h49.55.785297 -0400,
46,0,46,None,None,,,,,46,0,46,0,73.95507380001072,,,,,,,,,,,,,,,,,,,,73.94825660000788,73.95507380001072,74.87160110000696,74.86475740000606,1,74.86746160000621,74.87160110000696,74.87160110000696,75.36480850000225,75.36480850000225,75.35788640000101,None,75.35793760001252,75.35796670000127,None,,,,,,,,,,,,,004,001,2026-01-21_16h49.36.689,NESC3137_EEG_experiment,,2025.1.1,130.58478478756987,2026-01-21 16h49.55.785297 -0400,
47,0,47,None,None,,,,,47,0,47,0,75.36480850000225,,,,,,,,,,,,,,,,,,,,75.35815090000688,75.36480850000225,75.90122050000355,75.89296420000028,1,75.89660720000393,75.90122050000355,75.90122050000355,76.39272630000778,76.39272630000778,76.38616330000514,None,76.38622270000633,76.38625390001107,None,,,,,,,,,,,,,004,001,2026-01-21_16h49.36.689,NESC3137_EEG_experiment,,2025.1.1,130.58478478756987,2026-01-21 16h49.55.785297 -0400,
48,0,48,up,None,0.3784921000042232,None,,,48,0,48,0,76.39272630000778,,,,,,,,,,,,,,,,,,,,76.38652530001127,76.39272630000778,77.28815150000446,77.28200210000796,1,77.28459420001309,77.28815150000446,77.28815150000446,77.78181120000954,77.78181120000954,77.77509430001373,up,77.77515240000503,77.77518150000833,None,0.3784921000042232,None,,,,,,,,,,,004,001,2026-01-21_16h49.36.689,NESC3137_EEG_experiment,,2025.1.1,130.58478478756987,2026-01-21 16h49.55.785297 -0400,
49,0,49,down,None,0.35475230000156444,0.07966790000500623,,,49,0,49,0,77.78181120000954,,,,,,,,,,,,,,,,,,,,77.7753561000136,77.78181120000954,78.50376450001204,78.4973941000062,2,78.50034790000063,78.50376450001204,78.50376450001204,78.99656460000551,78.99656460000551,78.99051980000513,down,78.99057860000175,78.99060840001039,None,0.35475230000156444,0.07966790000500623,,,,,,,,,,,004,001,2026-01-21_16h49.36.689,NESC3137_EEG_experiment,,2025.1.1,130.58478478756987,2026-01-21 16h49.55.785297 -0400,
50,0,50,down,None,0.352348800006439,0.09752450000087265,,,50,0,50,0,78.99656460000551,,,,,,,,,,,,,,,,,,,,78.99079310000525,78.99656460000551,79.6981752000138,79.6918999000045,2,79.6944785000087,79.6981752000138,79.6981752000138,80.19220150000183,80.19220150000183,80.18695660000958,down,80.18699830000696,80.18701560000773,None,0.352348800006439,0.09752450000087265,,,,,,,,,,,004,001,2026-01-21_16h49.36.689,NESC3137_EEG_experiment,,2025.1.1,130.58478478756987,2026-01-21 16h49.55.785297 -0400,
51,0,51,down,None,0.36349830000835937,0.11208959999203216,,,51,0,51,0,80.19220150000183,,,,,,,,,,,,,,,,,,,,80.18714490000275,80.19220150000183,81.14278320000449,81.13639470000635,2,81.13881650000985,81.14278320000449,81.14278320000449,81.63675190000504,81.63675190000504,81.62974280001072,down,81.62980180000886,81.62983230000827,None,0.36349830000835937,0.11208959999203216,,,,,,,,,,,004,001,2026-01-21_16h49.36.689,NESC3137_EEG_experiment,,2025.1.1,130.58478478756987,2026-01-21 16h49.55.785297 -0400,
52,0,52,up,None,0.35143340000649914,None,,,52,0,52,0,81.63675190000504,,,,,,,,,,,,,,,,,,,,81.63005310000153,81.63675190000504,82.17098920000717,82.16552800001227,1,82.1679637000052,82.17098920000717,82.17098920000717,82.65986950001388,82.65986950001388,82.65555540000787,up,82.6556239000056,82.6556574000133,None,0.35143340000649914,None,,,,,,,,,,,004,001,2026-01-21_16h49.36.689,NESC3137_EEG_experiment,,2025.1.1,130.58478478756987,2026-01-21 16h49.55.785297 -0400,
53,0,53,up,None,0.3656593000050634,None,,,53,0,53,0,82.65986950001388,,,,,,,,,,,,,,,,,,,,82.65586130000884,82.65986950001388,83.332748300003,83.32553550000011,1,83.32788630000141,83.332748300003,83.332748300003,83.82495990001189,83.82495990001189,83.81844160000037,up,83.81848690001061,83.81850480000139,None,0.3656593000050634,None,,,,,,,,,,,004,001,2026-01-21_16h49.36.689,NESC3137_EEG_experiment,,2025.1.1,130.58478478756987,2026-01-21 16h49.55.785297 -0400,
54,0,54,up,None,0.38392139998904895,None,,,54,0,54,0,83.82495990001189,,,,,,,,,,,,,,,,,,,,83.81869710001047,83.82495990001189,84.81033750000643,84.80374430000666,1,84.8065418000042,84.81033750000643,84.81033750000643,85.30318990000524,85.30318990000524,85.29697780001152,up,85.29703750000044,85.29706950001128,None,0.38392139998904895,None,,,,,,,,,,,004,001,2026-01-21_16h49.36.689,NESC3137_EEG_experiment,,2025.1.1,130.58478478756987,2026-01-21 16h49.55.785297 -0400,
55,0,55,down,None,0.35950079999747686,0.11222799999814015,,,55,0,55,0,85.30318990000524,,,,,,,,,,,,,,,,,,,,85.29725400000461,85.30318990000524,85.96279920000234,85.9564728000114,2,85.95895900001051,85.96279920000234,85.96279920000234,86.45738780000829,86.45738780000829,86.45030860000406,down,86.45037620000949,86.4504050000105,None,0.35950079999747686,0.11222799999814015,,,,,,,,,,,004,001,2026-01-21_16h49.36.689,NESC3137_EEG_experiment,,2025.1.1,130.58478478756987,2026-01-21 16h49.55.785297 -0400,
56,0,56,down,None,0.4282718000031309,None,,,56,0,56,0,86.45738780000829,,,,,,,,,,,,,,,,,,,,86.45056770001247,86.45738780000829,86.99800800000958,86.99177810001129,2,86.99407369999972,86.99800800000958,86.99800800000958,87.49192780000158,87.49192780000158,87.48441610000737,down,87.48452620000171,87.48455600001034,None,0.4282718000031309,None,,,,,,,,,,,004,001,2026-01-21_16h49.36.689,NESC3137_EEG_experiment,,2025.1.1,130.58478478756987,2026-01-21 16h49.55.785297 -0400,
57,0,57,up,None,0.3263429000071483,0.13586289998784196,,,57,0,57,0,87.49192780000158,,,,,,,,,,,,,,,,,,,,87.48473110000486,87.49192780000158,88.43605210000533,88.4291857000062,1,88.4317846000049,88.43605210000533,88.43605210000533,88.9290650000039,88.9290650000039,88.92175630001293,up,88.92181130000972,88.92184000000998,None,0.3263429000071483,0.13586289998784196,,,,,,,,,,,004,001,2026-01-21_16h49.36.689,NESC3137_EEG_experiment,,2025.1.1,130.58478478756987,2026-01-21 16h49.55.785297 -0400,
58,0,58,down,None,0.3396869999996852,0.13587500000721775,,,58,0,58,0,88.9290650000039,,,,,,,,,,,,,,,,,,,,88.9220103000116,88.9290650000039,89.7347265999997,89.72845570000936,2,89.73132260001148,89.7347265999997,89.7347265999997,90.22755619999953,90.22755619999953,90.22129080000741,down,90.22134880001249,90.22138400000404,None,0.3396869999996852,0.13587500000721775,,,,,,,,,,,004,001,2026-01-21_16h49.36.689,NESC3137_EEG_experiment,,2025.1.1,130.58478478756987,2026-01-21 16h49.55.785297 -0400,
59,0,59,down,None,0.37621250000665896,None,,,59,0,59,0,90.22755619999953,,,,,,,,,,,,,,,,,,,,90.22157330000482,90.22755619999953,90.97815360000823,90.97149040001386,2,90.97409100001096,90.97815360000823,90.97815360000823,91.47222480000346,91.47222480000346,91.46475550001196,down,91.46482180000748,91.46485550000216,None,0.37621250000665896,None,,,,,,,,,,,004,001,2026-01-21_16h49.36.689,NESC3137_EEG_experiment,,2025.1.1,130.58478478756987,2026-01-21 16h49.55.785297 -0400,
60,0,60,up,None,0.3781645999988541,None,,,60,0,60,0,91.47222480000346,,,,,,,,,,,,,,,,,,,,91.4650590000092,91.47222480000346,92.00018380000256,91.99352510001336,1,91.99577940000745,92.00018380000256,92.00018380000256,92.49259550000716,92.49259550000716,92.48524680000264,up,92.48529100000451,92.48531000000366,None,0.3781645999988541,None,,,,,,,,,,,004,001,2026-01-21_16h49.36.689,NESC3137_EEG_experiment,,2025.1.1,130.58478478756987,2026-01-21 16h49.55.785297 -0400,
61,0,61,down,None,0.4117541000014171,None,,,61,0,61,0,92.49259550000716,,,,,,,,,,,,,,,,,,,,92.48544060000859,92.49259550000716,93.10275420000835,93.0966780000017,2,93.09999080000853,93.10275420000835,93.10275420000835,93.59589570001117,93.59589570001117,93.5910683000111,down,93.5911255000101,93.59115570000722,None,0.4117541000014171,None,,,,,,,,,,,004,001,2026-01-21_16h49.36.689,NESC3137_EEG_experiment,,2025.1.1,130.58478478756987,2026-01-21 16h49.55.785297 -0400,
62,0,62,up,None,0.30347459999029525,0.14343560000997968,,,62,0,62,0,93.59589570001117,,,,,,,,,,,,,,,,,,,,93.59138570001232,93.59589570001117,94.17950160001055,94.17271000001347,1,94.17499050000333,94.17950160001055,94.17950160001055,94.67322550000972,94.67322550000972,94.66591030001291,up,94.6659675000119,94.66599680000218,None,0.30347459999029525,0.14343560000997968,,,,,,,,,,,004,001,2026-01-21_16h49.36.689,NESC3137_EEG_experiment,,2025.1.1,130.58478478756987,2026-01-21 16h49.55.785297 -0400,
63,0,63,down,None,0.34845259999565315,None,,,63,0,63,0,94.67322550000972,,,,,,,,,,,,,,,,,,,,94.66619010000431,94.67322550000972,95.26990850000584,95.26350480000838,2,95.26589930000773,95.26990850000584,95.26990850000584,95.7630904000107,95.7630904000107,95.75658060000569,down,95.75663320001331,95.75666140000976,None,0.34845259999565315,None,,,,,,,,,,,004,001,2026-01-21_16h49.36.689,NESC3137_EEG_experiment,,2025.1.1,130.58478478756987,2026-01-21 16h49.55.785297 -0400,
64,0,64,down,None,0.43694220000179484,None,,,64,0,64,0,95.7630904000107,,,,,,,,,,,,,,,,,,,,95.7568437000009,95.7630904000107,96.69346860000223,96.68738890001259,2,96.68974230000458,96.69346860000223,96.69346860000223,97.18708210000477,97.18708210000477,97.1804598000017,down,97.18051740000374,97.18054760000086,None,0.43694220000179484,None,,,,,,,,,,,004,001,2026-01-21_16h49.36.689,NESC3137_EEG_experiment,,2025.1.1,130.58478478756987,2026-01-21 16h49.55.785297 -0400,
65,0,65,up,None,0.31011630001012236,0.12812489998759702,,,65,0,65,0,97.18708210000477,,,,,,,,,,,,,,,,,,,,97.18072000000393,97.18708210000477,98.1241832000087,98.11798960001033,1,98.1204948000086,98.1241832000087,98.1241832000087,98.61785630001395,98.61785630001395,98.61177450000832,up,98.61184960001265,98.6118845000019,None,0.31011630001012236,0.12812489998759702,,,,,,,,,,,004,001,2026-01-21_16h49.36.689,NESC3137_EEG_experiment,,2025.1.1,130.58478478756987,2026-01-21 16h49.55.785297 -0400,
66,0,66,up,None,0.34160880000854377,None,,,66,0,66,0,98.61785630001395,,,,,,,,,,,,,,,,,,,,98.61208380000608,98.61785630001395,99.5412314000132,99.53453630000877,1,99.5371284000139,99.5412314000132,99.5412314000132,100.03460940001241,100.03460940001241,100.02799530001357,up,100.028037400014,100.0280577000085,None,0.34160880000854377,None,,,,,,,,,,,004,001,2026-01-21_16h49.36.689,NESC3137_EEG_experiment,,2025.1.1,130.58478478756987,2026-01-21 16h49.55.785297 -0400,
67,0,67,down,None,0.39143909999984317,None,,,67,0,67,0,100.03460940001241,,,,,,,,,,,,,,,,,,,,100.02817950000463,100.03460940001241,100.666867500011,100.66016130000935,2,100.66358340000443,100.666867500011,100.666867500011,101.16005230000883,101.16005230000883,101.15345100000559,down,101.15351950000331,101.15355240000645,None,0.39143909999984317,None,,,,,,,,,,,004,001,2026-01-21_16h49.36.689,NESC3137_EEG_experiment,,2025.1.1,130.58478478756987,2026-01-21 16h49.55.785297 -0400,
68,0,68,up,None,0.285597099995357,0.16019100000266917,,,68,0,68,0,101.16005230000883,,,,,,,,,,,,,,,,,,,,101.15375710000808,101.16005230000883,101.88479570001073,101.87663460000476,1,101.87945700000273,101.88479570001073,101.88479570001073,102.37522730001365,102.37522730001365,102.37018060000264,up,102.37024480001128,102.37027650000528,None,0.285597099995357,0.16019100000266917,,,,,,,,,,,004,001,2026-01-21_16h49.36.689,NESC3137_EEG_experiment,,2025.1.1,130.58478478756987,2026-01-21 16h49.55.785297 -0400,
69,0,69,up,None,0.4678256000042893,None,,,69,0,69,0,102.37522730001365,,,,,,,,,,,,,,,,,,,,102.37047449999955,102.37522730001365,103.01451240001188,103.0075896000053,1,103.0101946000068,103.01451240001188,103.01451240001188,103.50775680001243,103.50775680001243,103.50083370000357,up,103.50088610000967,103.50090510000882,None,0.4678256000042893,None,,,,,,,,,,,004,001,2026-01-21_16h49.36.689,NESC3137_EEG_experiment,,2025.1.1,130.58478478756987,2026-01-21 16h49.55.785297 -0400,
70,0,70,down,None,0.4147383999952581,None,,,70,0,70,0,103.50775680001243,,,,,,,,,,,,,,,,,,,,103.50105670001358,103.50775680001243,104.39621050001006,104.38997860001109,2,104.39231330000621,104.39621050001006,104.39621050001006,104.89080380000814,104.89080380000814,104.883419100006,down,104.88347420000355,104.88349330000347,None,0.4147383999952581,None,,,,,,,,,,,004,001,2026-01-21_16h49.36.689,NESC3137_EEG_experiment,,2025.1.1,130.58478478756987,2026-01-21 16h49.55.785297 -0400,
71,0,71,up,None,0.3803224000002956,None,,,71,0,71,0,104.89080380000814,,,,,,,,,,,,,,,,,,,,104.88367210001161,104.89080380000814,105.70190010000078,105.69492410001112,1,105.69773260000511,105.70190010000078,105.70190010000078,106.19554270000663,106.19554270000663,106.18878840000252,up,106.18884930000058,106.188882500006,None,0.3803224000002956,None,,,,,,,,,,,004,001,2026-01-21_16h49.36.689,NESC3137_EEG_experiment,,2025.1.1,130.58478478756987,2026-01-21 16h49.55.785297 -0400,
72,0,72,None,None,,,,,72,0,72,0,106.19554270000663,,,,,,,,,,,,,,,,,,,,106.18907530000433,106.19554270000663,106.80645210000512,106.79927500001213,2,106.80150820000563,106.80645210000512,106.80645210000512,107.29893890001404,107.29893890001404,107.29293210001197,None,107.29296630001045,107.29298410000047,None,,,,,,,,,,,,,004,001,2026-01-21_16h49.36.689,NESC3137_EEG_experiment,,2025.1.1,130.58478478756987,2026-01-21 16h49.55.785297 -0400,
73,0,73,up,None,0.3338798000040697,0.12794039999425877,,,73,0,73,0,107.29893890001404,,,,,,,,,,,,,,,,,,,,107.29309390000708,107.29893890001404,108.23663730001135,108.23075480000989,1,108.23328000000038,108.23663730001135,108.23663730001135,108.72983390001173,108.72983390001173,108.72363980000955,up,108.72369840000465,108.7237262000126,None,0.3338798000040697,0.12794039999425877,,,,,,,,,,,004,001,2026-01-21_16h49.36.689,NESC3137_EEG_experiment,,2025.1.1,130.58478478756987,2026-01-21 16h49.55.785297 -0400,
74,0,74,down,None,0.35870860000432003,0.11996939999517053,,,74,0,74,0,108.72983390001173,,,,,,,,,,,,,,,,,,,,108.7239050000062,108.72983390001173,109.50764480000362,109.50143790000584,2,109.50345460000972,109.50764480000362,109.50764480000362,110.00119730000733,110.00119730000733,109.99459180000122,down,109.99464470001112,109.99466600001324,None,0.35870860000432003,0.11996939999517053,,,,,,,,,,,004,001,2026-01-21_16h49.36.689,NESC3137_EEG_experiment,,2025.1.1,130.58478478756987,2026-01-21 16h49.55.785297 -0400,
75,0,75,up,None,0.327697700005956,0.14414009999018162,,,75,0,75,0,110.00119730000733,,,,,,,,,,,,,,,,,,,,109.9948252000031,110.00119730000733,110.8346057000017,110.82769560000452,2,110.8301838000043,110.8346057000017,110.8346057000017,111.32806670000718,111.32806670000718,111.32160650000151,up,111.32165040000109,111.32166840000718,None,0.327697700005956,0.14414009999018162,,,,,,,,,,,004,001,2026-01-21_16h49.36.689,NESC3137_EEG_experiment,,2025.1.1,130.58478478756987,2026-01-21 16h49.55.785297 -0400,
76,0,76,down,None,0.42525230000319425,None,,,76,0,76,0,111.32806670000718,,,,,,,,,,,,,,,,,,,,111.32179980000365,111.32806670000718,112.00108150001324,111.99501710000914,2,111.99725410000246,112.00108150001324,112.00108150001324,112.49495840001327,112.49495840001327,112.4884017000004,down,112.48846440001216,112.48849770000379,None,0.42525230000319425,None,,,,,,,,,,,004,001,2026-01-21_16h49.36.689,NESC3137_EEG_experiment,,2025.1.1,130.58478478756987,2026-01-21 16h49.55.785297 -0400,
77,0,77,up,None,0.35420699999667704,None,,,77,0,77,0,112.49495840001327,,,,,,,,,,,,,,,,,,,,112.48870860000898,112.49495840001327,113.32054870000866,113.31447430000117,1,113.31678730000567,113.32054870000866,113.32054870000866,113.81405520001135,113.81405520001135,113.80806210001174,up,113.80812940000033,113.80815790001361,None,0.35420699999667704,None,,,,,,,,,,,004,001,2026-01-21_16h49.36.689,NESC3137_EEG_experiment,,2025.1.1,130.58478478756987,2026-01-21 16h49.55.785297 -0400,
78,0,78,up,None,0.45985209998616483,None,,,78,0,78,0,113.81405520001135,,,,,,,,,,,,,,,,,,,,113.80836070000078,113.81405520001135,114.65461400001368,114.6481410000124,1,114.65086630001315,114.65461400001368,114.65461400001368,115.14803850000317,115.14803850000317,115.1413501000061,up,115.14139680001244,115.1414153000078,None,0.45985209998616483,None,,,,,,,,,,,004,001,2026-01-21_16h49.36.689,NESC3137_EEG_experiment,,2025.1.1,130.58478478756987,2026-01-21 16h49.55.785297 -0400,
79,0,79,down,None,0.4047333000053186,None,,,79,0,79,0,115.14803850000317,,,,,,,,,,,,,,,,,,,,115.14156560000265,115.14803850000317,115.76552020000236,115.75956900000165,2,115.7621463000105,115.76552020000236,115.76552020000236,116.25913940000464,116.25913940000464,116.2526183000009,down,116.25266450000345,116.2526835000026,None,0.4047333000053186,None,,,,,,,,,,,004,001,2026-01-21_16h49.36.689,NESC3137_EEG_experiment,,2025.1.1,130.58478478756987,2026-01-21 16h49.55.785297 -0400,
80,0,80,up,None,0.39578579999215435,None,,,80,0,80,0,116.25913940000464,,,,,,,,,,,,,,,,,,,,116.25284380000085,116.25913940000464,117.18259419999958,117.17617710000195,1,117.17876530000649,117.18259419999958,117.18259419999958,117.67546570001286,117.67546570001286,117.669432900002,up,117.66950130001351,117.66953210000065,None,0.39578579999215435,None,,,,,,,,,,,004,001,2026-01-21_16h49.36.689,NESC3137_EEG_experiment,,2025.1.1,130.58478478756987,2026-01-21 16h49.55.785297 -0400,
81,0,81,down,None,0.43963439999788534,None,,,81,0,81,0,117.67546570001286,,,,,,,,,,,,,,,,,,,,117.66973360000702,117.67546570001286,118.52282150000974,118.51655290000781,2,118.51939450000646,118.52282150000974,118.52282150000974,119.01674960000673,119.01674960000673,119.00973140000133,down,119.00978590000886,119.00981360000151,None,0.43963439999788534,None,,,,,,,,,,,004,001,2026-01-21_16h49.36.689,NESC3137_EEG_experiment,,2025.1.1,130.58478478756987,2026-01-21 16h49.55.785297 -0400,
82,0,82,up,None,0.47151170000142884,None,,,82,0,82,0,119.01674960000673,,,,,,,,,,,,,,,,,,,,119.0099867000099,119.01674960000673,119.62731890000578,119.62086040001304,1,119.62343080001301,119.62731890000578,119.62731890000578,120.12101180000172,120.12101180000172,120.1143379000132,up,120.1143798000121,120.11439860000974,None,0.47151170000142884,None,,,,,,,,,,,004,001,2026-01-21_16h49.36.689,NESC3137_EEG_experiment,,2025.1.1,130.58478478756987,2026-01-21 16h49.55.785297 -0400,
83,0,83,down,None,0.34967670000332873,0.12016939999011811,,,83,0,83,0,120.12101180000172,,,,,,,,,,,,,,,,,,,,120.11454510000476,120.12101180000172,120.78054580000753,120.7739772000059,2,120.77618230000371,120.78054580000753,120.78054580000753,121.27359660000366,121.27359660000366,121.26666480000131,down,121.26670410000952,121.26672170001257,None,0.34967670000332873,0.12016939999011811,,,,,,,,,,,004,001,2026-01-21_16h49.36.689,NESC3137_EEG_experiment,,2025.1.1,130.58478478756987,2026-01-21 16h49.55.785297 -0400,
84,0,84,up,None,0.32460720000381116,0.14403939999465365,,,84,0,84,0,121.27359660000366,,,,,,,,,,,,,,,,,,,,121.26685320000979,121.27359660000366,121.77367430001323,121.76705960000982,1,121.76983040000778,121.77367430001323,121.77367430001323,122.26659440000367,122.26659440000367,122.25987970001006,up,122.25994080000964,122.25996920000762,None,0.32460720000381116,0.14403939999465365,,,,,,,,,,,004,001,2026-01-21_16h49.36.689,NESC3137_EEG_experiment,,2025.1.1,130.58478478756987,2026-01-21 16h49.55.785297 -0400,
85,0,85,up,None,0.4505534999916563,None,,,85,0,85,0,122.26659440000367,,,,,,,,,,,,,,,,,,,,122.26015970000299,122.26659440000367,123.23182980000274,123.225359700009,1,123.22734780001338,123.23182980000274,123.23182980000274,123.72481140001037,123.72481140001037,123.71885650001059,up,123.7189161000133,123.71894630001043,None,0.4505534999916563,None,,,,,,,,,,,004,001,2026-01-21_16h49.36.689,NESC3137_EEG_experiment,,2025.1.1,130.58478478756987,2026-01-21 16h49.55.785297 -0400,
86,0,86,up,None,0.43915030000789557,None,,,86,0,86,0,123.72481140001037,,,,,,,,,,,,,,,,,,,,123.71919250000792,123.72481140001037,124.41920240000763,124.41331060000812,1,124.41593990000547,124.41920240000763,124.41920240000763,124.91305110001122,124.91305110001122,124.90655040000274,up,124.90660940000089,124.90662890000385,None,0.43915030000789557,None,,,,,,,,,,,004,001,2026-01-21_16h49.36.689,NESC3137_EEG_experiment,,2025.1.1,130.58478478756987,2026-01-21 16h49.55.785297 -0400,
87,0,87,down,None,0.37688039999920875,0.09628820000216365,,,87,0,87,0,124.91305110001122,,,,,,,,,,,,,,,,,,,,124.90683940000599,124.91305110001122,125.53753670000879,125.5315425000008,2,125.53380580000521,125.53753670000879,125.53753670000879,126.03139519999968,126.03139519999968,126.02401960000861,down,126.02406860000337,126.02408570000262,None,0.37688039999920875,0.09628820000216365,,,,,,,,,,,004,001,2026-01-21_16h49.36.689,NESC3137_EEG_experiment,,2025.1.1,130.58478478756987,2026-01-21 16h49.55.785297 -0400,
88,0,88,down,None,0.4012230000080308,None,,,88,0,88,0,126.03139519999968,,,,,,,,,,,,,,,,,,,,126.02427060001355,126.03139519999968,126.75304310000502,126.74641620001057,2,126.7491122000065,126.75304310000502,126.75304310000502,127.24683519999962,127.24683519999962,127.23967610001273,down,127.23974380000436,127.2397728000069,None,0.4012230000080308,None,,,,,,,,,,,004,001,2026-01-21_16h49.36.689,NESC3137_EEG_experiment,,2025.1.1,130.58478478756987,2026-01-21 16h49.55.785297 -0400,
89,0,89,down,None,0.41467719999491237,None,,,89,0,89,0,127.24683519999962,,,,,,,,,,,,,,,,,,,,127.23994700000912,127.24683519999962,127.94763320000493,127.94173740000406,2,127.9449222000112,127.94763320000493,127.94763320000493,128.44104540000262,128.44104540000262,128.43424840000807,down,128.43430490000173,128.43433370000275,None,0.41467719999491237,None,,,,,,,,,,,004,001,2026-01-21_16h49.36.689,NESC3137_EEG_experiment,,2025.1.1,130.58478478756987,2026-01-21 16h49.55.785297 -0400,
90,0,90,up,None,0.3771282999950927,None,,,90,0,90,0,128.44104540000262,,,,,,,,,,,,,,,,,,,,128.43450390000362,128.44104540000262,129.07329690000915,129.06601420001243,1,129.06844250000722,129.07329690000915,129.07329690000915,129.5666760000022,129.5666760000022,129.560003400009,up,129.5600693000015,129.56010150001384,None,0.3771282999950927,None,,,,,,,,,,,004,001,2026-01-21_16h49.36.689,NESC3137_EEG_experiment,,2025.1.1,130.58478478756987,2026-01-21 16h49.55.785297 -0400,
91,0,91,up,None,0.41914250000263564,None,,,91,0,91,0,129.5666760000022,,,,,,,,,,,,,,,,,,,,129.560352600005,129.5666760000022,130.45517510001082,130.44843790000596,1,130.45023090000905,130.45517510001082,130.45517510001082,130.94829420000315,130.94829420000315,130.9422648000036,up,130.94233770000574,130.94236540001293,None,0.41914250000263564,None,,,,,,,,,,,004,001,2026-01-21_16h49.36.689,NESC3137_EEG_experiment,,2025.1.1,130.58478478756987,2026-01-21 16h49.55.785297 -0400,
92,0,92,None,None,,,,,92,0,92,0,130.94829420000315,,,,,,,,,,,,,,,,,,,,130.94254610000644,130.94829420000315,131.712001900014,131.70560440000554,1,131.70774460000393,131.712001900014,131.712001900014,132.20564460000605,132.20564460000605,132.1989598000073,None,132.1990141000133,132.19904320000205,None,,,,,,,,,,,,,004,001,2026-01-21_16h49.36.689,NESC3137_EEG_experiment,,2025.1.1,130.58478478756987,2026-01-21 16h49.55.785297 -0400,
93,0,93,down,None,0.4043225000059465,None,,,93,0,93,0,132.20564460000605,,,,,,,,,,,,,,,,,,,,132.1993264000048,132.20564460000605,133.0459348000004,133.03974800001015,2,133.04228450001392,133.0459348000004,133.0459348000004,133.53917770000407,133.53917770000407,133.53225190000376,down,133.5323092000035,133.53233820000605,None,0.4043225000059465,None,,,,,,,,,,,004,001,2026-01-21_16h49.36.689,NESC3137_EEG_experiment,,2025.1.1,130.58478478756987,2026-01-21 16h49.55.785297 -0400,
94,0,94,down,None,0.35250180000730325,0.12011030000576284,,,94,0,94,0,133.53917770000407,,,,,,,,,,,,,,,,,,,,133.53253330000734,133.53917770000407,134.17781890000333,134.17157370000496,2,134.17390980001073,134.17781890000333,134.17781890000333,134.67127560000517,134.67127560000517,134.66454870000598,down,134.6645994999999,134.66461880000134,None,0.35250180000730325,0.12011030000576284,,,,,,,,,,,004,001,2026-01-21_16h49.36.689,NESC3137_EEG_experiment,,2025.1.1,130.58478478756987,2026-01-21 16h49.55.785297 -0400,
95,0,95,down,None,0.3456288000015775,0.11233079999510664,,,95,0,95,0,134.67127560000517,,,,,,,,,,,,,,,,,,,,134.66476470000634,134.67127560000517,135.55270420000306,135.54677030000312,2,135.54915010000695,135.55270420000306,135.55270420000306,136.0462058000121,136.0462058000121,136.04009750000841,down,136.0401678000053,136.04019750001316,None,0.3456288000015775,0.11233079999510664,,,,,,,,,,,004,001,2026-01-21_16h49.36.689,NESC3137_EEG_experiment,,2025.1.1,130.58478478756987,2026-01-21 16h49.55.785297 -0400,
96,0,96,down,None,0.41050410000025295,None,,,96,0,96,0,136.0462058000121,,,,,,,,,,,,,,,,,,,,136.04040380001243,136.0462058000121,136.87978320001275,136.87351460001082,2,136.87596450001,136.87978320001275,136.87978320001275,137.37270140000328,137.37270140000328,137.36611400000402,down,137.36616770000546,137.3661948000081,None,0.41050410000025295,None,,,,,,,,,,,004,001,2026-01-21_16h49.36.689,NESC3137_EEG_experiment,,2025.1.1,130.58478478756987,2026-01-21 16h49.55.785297 -0400,
97,0,97,up,None,0.4070071000023745,None,,,97,0,97,0,137.37270140000328,,,,,,,,,,,,,,,,,,,,137.3663787000114,137.37270140000328,137.907368900007,137.90119750000304,1,137.90373150000232,137.907368900007,137.907368900007,138.4003098000103,138.4003098000103,138.39523060001375,up,138.39528680000512,138.39531450001232,None,0.4070071000023745,None,,,,,,,,,,,004,001,2026-01-21_16h49.36.689,NESC3137_EEG_experiment,,2025.1.1,130.58478478756987,2026-01-21 16h49.55.785297 -0400,
98,0,98,up,None,0.3713378999964334,None,,,98,0,98,0,138.4003098000103,,,,,,,,,,,,,,,,,,,,138.3954953000066,138.4003098000103,138.99091670000053,138.98424300001352,1,138.98681030000444,138.99091670000053,138.99091670000053,139.48374370000965,139.48374370000965,139.47841140000673,up,139.4784529000026,139.47847040000488,None,0.3713378999964334,None,,,,,,,,,,,004,001,2026-01-21_16h49.36.689,NESC3137_EEG_experiment,,2025.1.1,130.58478478756987,2026-01-21 16h49.55.785297 -0400,
99,0,99,up,None,0.4039776999998139,None,,,99,0,99,0,139.48374370000965,,,,,,,,,,,,,,,,,,,,139.4786055000004,139.48374370000965,140.04636279999977,140.04060690000188,1,140.04368250000698,140.04636279999977,140.04636279999977,140.54014320000715,140.54014320000715,140.5333692000131,up,140.53343500000483,140.53346770000644,None,0.4039776999998139,None,,,,,,,,,,,004,001,2026-01-21_16h49.36.689,NESC3137_EEG_experiment,,2025.1.1,130.58478478756987,2026-01-21 16h49.55.785297 -0400,
100,0,100,down,None,0.33580620000429917,0.12797040000441484,,,100,0,100,0,140.54014320000715,,,,,,,,,,,,,,,,,,,,140.53365219999978,140.54014320000715,141.28260410000803,141.2767187000136,2,141.27881190000335,141.28260410000803,141.28260410000803,141.77628860001278,141.77628860001278,141.76936040000874,down,141.76941870000155,141.76944580000418,None,0.33580620000429917,0.12797040000441484,,,,,,,,,,,004,001,2026-01-21_16h49.36.689,NESC3137_EEG_experiment,,2025.1.1,130.58478478756987,2026-01-21 16h49.55.785297 -0400,
101,0,101,down,None,0.2938094999990426,0.11198570000124164,,,101,0,101,0,141.77628860001278,,,,,,,,,,,,,,,,,,,,141.76962760000606,141.77628860001278,142.6925692000077,142.68629300000612,2,142.68859600000724,142.6925692000077,142.6925692000077,143.18613710001227,143.18613710001227,143.18075210000097,down,143.18081870001333,143.18085000000428,None,0.2938094999990426,0.11198570000124164,,,,,,,,,,,004,001,2026-01-21_16h49.36.689,NESC3137_EEG_experiment,,2025.1.1,130.58478478756987,2026-01-21 16h49.55.785297 -0400,
102,0,102,down,None,0.38622070000565145,None,,,102,0,102,0,143.18613710001227,,,,,,,,,,,,,,,,,,,,143.18107770000643,143.18613710001227,143.77613980000024,143.76956380000047,2,143.77167700001155,143.77613980000024,143.77613980000024,144.26971150000463,144.26971150000463,144.2631579000008,down,144.2632009000081,144.26321960000496,None,0.38622070000565145,None,,,,,,,,,,,004,001,2026-01-21_16h49.36.689,NESC3137_EEG_experiment,,2025.1.1,130.58478478756987,2026-01-21 16h49.55.785297 -0400,
103,0,103,None,None,,,,,103,0,103,0,144.26971150000463,,,,,,,,,,,,,,,,,,,,144.26335310000286,144.26971150000463,145.13756920000014,145.13147270001355,1,145.1346682000003,145.13756920000014,145.13756920000014,145.6311437000113,145.6311437000113,145.62445200000366,None,145.62448340000992,145.6244999000046,None,,,,,,,,,,,,,004,001,2026-01-21_16h49.36.689,NESC3137_EEG_experiment,,2025.1.1,130.58478478756987,2026-01-21 16h49.55.785297 -0400,
104,0,104,up,None,0.3209578999958467,0.11173129999951925,,,104,0,104,0,145.6311437000113,,,,,,,,,,,,,,,,,,,,145.62464290000207,145.6311437000113,146.1375781000097,146.13136900000973,1,146.13404460001038,146.1375781000097,146.1375781000097,146.63099050000892,146.63099050000892,146.6238452000107,up,146.62390310000046,146.6239324000053,None,0.3209578999958467,0.11173129999951925,,,,,,,,,,,004,001,2026-01-21_16h49.36.689,NESC3137_EEG_experiment,,2025.1.1,130.58478478756987,2026-01-21 16h49.55.785297 -0400,
105,0,105,up,None,0.34083889999601524,0.10385330001008697,,,105,0,105,0,146.63099050000892,,,,,,,,,,,,,,,,,,,,146.6241294000065,146.63099050000892,147.3736792000127,147.36762650001037,1,147.36997390000033,147.3736792000127,147.3736792000127,147.86742270000104,147.86742270000104,147.86030790000223,up,147.86035900001298,147.86037860000215,None,0.34083889999601524,0.10385330001008697,,,,,,,,,,,004,001,2026-01-21_16h49.36.689,NESC3137_EEG_experiment,,2025.1.1,130.58478478756987,2026-01-21 16h49.55.785297 -0400,
106,0,106,up,None,0.33198479999555275,0.08793639999930747,,,106,0,106,0,147.86742270000104,,,,,,,,,,,,,,,,,,,,147.86050610001257,147.86742270000104,148.42235740000615,148.41629459999967,1,148.4191315000062,148.42235740000615,148.42235740000615,148.91647180001019,148.91647180001019,148.90955330000725,up,148.90963290000218,148.9096556000004,None,0.33198479999555275,0.08793639999930747,,,,,,,,,,,004,001,2026-01-21_16h49.36.689,NESC3137_EEG_experiment,,2025.1.1,130.58478478756987,2026-01-21 16h49.55.785297 -0400,
107,0,107,up,None,0.3206102000112878,0.07970889999705832,,,107,0,107,0,148.91647180001019,,,,,,,,,,,,,,,,,,,,148.90983650001,148.91647180001019,149.77010350000637,149.763680700009,2,149.76614350000455,149.77010350000637,149.77010350000637,150.26371579999977,150.26371579999977,150.25728119999985,up,150.2573507000052,150.25738840000122,None,0.3206102000112878,0.07970889999705832,,,,,,,,,,,004,001,2026-01-21_16h49.36.689,NESC3137_EEG_experiment,,2025.1.1,130.58478478756987,2026-01-21 16h49.55.785297 -0400,
108,0,108,None,None,,,,,108,0,108,0,150.26371579999977,,,,,,,,,,,,,,,,,,,,150.2575988000026,150.26371579999977,150.89493000000948,150.88872440000705,1,150.89122370000405,150.89493000000948,150.89493000000948,151.3884001000115,151.3884001000115,151.38216079999984,None,151.38221370000974,151.38224040000932,None,,,,,,,,,,,,,004,001,2026-01-21_16h49.36.689,NESC3137_EEG_experiment,,2025.1.1,130.58478478756987,2026-01-21 16h49.55.785297 -0400,
109,0,109,up,None,0.4028448000026401,None,,,109,0,109,0,151.3884001000115,,,,,,,,,,,,,,,,,,,,151.38238060000003,151.3884001000115,152.26356120000128,152.2570948000066,1,152.2596795000136,152.26356120000128,152.26356120000128,152.75700300000608,152.75700300000608,152.75028320000274,up,152.75032400000782,152.7503410000063,None,0.4028448000026401,None,,,,,,,,,,,004,001,2026-01-21_16h49.36.689,NESC3137_EEG_experiment,,2025.1.1,130.58478478756987,2026-01-21 16h49.55.785297 -0400,
110,0,110,down,None,0.4727928999927826,None,,,110,0,110,0,152.75700300000608,,,,,,,,,,,,,,,,,,,,152.75051400001394,152.75700300000608,153.24984660001064,153.2436638000072,2,153.24622040000395,153.24984660001064,153.24984660001064,153.74305950000416,153.74305950000416,153.7362673000025,down,153.73632900000666,153.73636960001022,None,0.4727928999927826,None,,,,,,,,,,,004,001,2026-01-21_16h49.36.689,NESC3137_EEG_experiment,,2025.1.1,130.58478478756987,2026-01-21 16h49.55.785297 -0400,
111,0,111,down,None,0.4516257999930531,None,,,111,0,111,0,153.74305950000416,,,,,,,,,,,,,,,,,,,,153.7365553000127,153.74305950000416,154.37493450001057,154.3680272000056,2,154.37049270000716,154.37493450001057,154.37493450001057,154.86778160001268,154.86778160001268,154.86140390000946,down,154.86146340001142,154.86149550000846,None,0.4516257999930531,None,,,,,,,,,,,004,001,2026-01-21_16h49.36.689,NESC3137_EEG_experiment,,2025.1.1,130.58478478756987,2026-01-21 16h49.55.785297 -0400,
112,0,112,down,None,0.34454019999247976,0.1195612000010442,,,112,0,112,0,154.86778160001268,,,,,,,,,,,,,,,,,,,,154.8616783000034,154.86778160001268,155.66631070000585,155.66025850000733,2,155.66227939999953,155.66631070000585,155.66631070000585,156.16029150001123,156.16029150001123,156.1538653000025,down,156.15391660000023,156.15393460000632,None,0.34454019999247976,0.1195612000010442,,,,,,,,,,,004,001,2026-01-21_16h49.36.689,NESC3137_EEG_experiment,,2025.1.1,130.58478478756987,2026-01-21 16h49.55.785297 -0400,
113,0,113,down,None,0.3381431000016164,0.12010719999670982,,,113,0,113,0,156.16029150001123,,,,,,,,,,,,,,,,,,,,156.1541115,156.16029150001123,156.94427330000326,156.93827210000018,2,156.94040289999975,156.94427330000326,156.94427330000326,157.4379612000048,157.4379612000048,157.43112610001117,down,157.43118530001084,157.4312079000083,None,0.3381431000016164,0.12010719999670982,,,,,,,,,,,004,001,2026-01-21_16h49.36.689,NESC3137_EEG_experiment,,2025.1.1,130.58478478756987,2026-01-21 16h49.55.785297 -0400,
114,0,114,down,None,0.3459803000005195,0.12822100000630599,,,114,0,114,0,157.4379612000048,,,,,,,,,,,,,,,,,,,,157.431441800014,157.4379612000048,158.16033510000852,158.1540345000103,2,158.1566923000064,158.16033510000852,158.16033510000852,158.65349970001262,158.65349970001262,158.64679450000403,down,158.64685520000057,158.64688680000836,None,0.3459803000005195,0.12822100000630599,,,,,,,,,,,004,001,2026-01-21_16h49.36.689,NESC3137_EEG_experiment,,2025.1.1,130.58478478756987,2026-01-21 16h49.55.785297 -0400,
115,0,115,down,None,0.2989859999943292,0.11999550000473391,,,115,0,115,0,158.65349970001262,,,,,,,,,,,,,,,,,,,,158.64707500000077,158.65349970001262,159.47948320000432,159.4733811000042,2,159.47568730000057,159.47948320000432,159.47948320000432,159.97325540000747,159.97325540000747,159.9663825000025,down,159.96643900001072,159.96646720000717,None,0.2989859999943292,0.11999550000473391,,,,,,,,,,,004,001,2026-01-21_16h49.36.689,NESC3137_EEG_experiment,,2025.1.1,130.58478478756987,2026-01-21 16h49.55.785297 -0400,
116,0,116,down,None,0.39664300000004005,None,,,116,0,116,0,159.97325540000747,,,,,,,,,,,,,,,,,,,,159.9666431000078,159.97325540000747,160.8617796000035,160.85533710000163,2,160.8578325000126,160.8617796000035,160.8617796000035,161.35561810000218,161.35561810000218,161.3485236000124,down,161.3485803000076,161.34860880000633,None,0.39664300000004005,None,,,,,,,,,,,004,001,2026-01-21_16h49.36.689,NESC3137_EEG_experiment,,2025.1.1,130.58478478756987,2026-01-21 16h49.55.785297 -0400,
117,0,117,down,None,0.31073929999547545,0.12003040000854526,,,117,0,117,0,161.35561810000218,,,,,,,,,,,,,,,,,,,,161.34879920000094,161.35561810000218,162.2516553000023,162.24527330001,2,162.24903270001232,162.2516553000023,162.2516553000023,162.74447090001195,162.74447090001195,162.73703090001072,down,162.73708630001056,162.73711280000862,None,0.31073929999547545,0.12003040000854526,,,,,,,,,,,004,001,2026-01-21_16h49.36.689,NESC3137_EEG_experiment,,2025.1.1,130.58478478756987,2026-01-21 16h49.55.785297 -0400,
118,0,118,down,None,0.3463078999920981,0.07984849999775179,,,118,0,118,0,162.74447090001195,,,,,,,,,,,,,,,,,,,,162.73729580000509,162.74447090001195,163.32016560000193,163.31414120001136,1,163.31637590000173,163.32016560000193,163.32016560000193,163.8138525000104,163.8138525000104,163.80687800000305,down,163.80693650001194,163.80696620000526,None,0.3463078999920981,0.07984849999775179,,,,,,,,,,,004,001,2026-01-21_16h49.36.689,NESC3137_EEG_experiment,,2025.1.1,130.58478478756987,2026-01-21 16h49.55.785297 -0400,
119,0,119,up,None,0.34124149999115616,0.10376759999780916,,,119,0,119,0,163.8138525000104,,,,,,,,,,,,,,,,,,,,163.80715240001155,163.8138525000104,164.70954560000973,164.7029601000104,1,164.7050550000131,164.70954560000973,164.70954560000973,165.2025289000012,165.2025289000012,165.19648200001393,up,165.19654190000438,165.19656970001233,None,0.34124149999115616,0.10376759999780916,,,,,,,,,,,004,001,2026-01-21_16h49.36.689,NESC3137_EEG_experiment,,2025.1.1,130.58478478756987,2026-01-21 16h49.55.785297 -0400,
120,0,120,up,None,0.3476081999979215,0.08800410000549164,,,120,0,120,0,165.2025289000012,,,,,,,,,,,,,,,,,,,,165.19677930000762,165.2025289000012,165.80685310000263,165.80038030000287,1,165.80288410000503,165.80685310000263,165.80685310000263,166.3004007000127,166.3004007000127,166.2937738000037,up,166.29382430000987,166.29384180001216,None,0.3476081999979215,0.08800410000549164,,,,,,,,,,,004,001,2026-01-21_16h49.36.689,NESC3137_EEG_experiment,,2025.1.1,130.58478478756987,2026-01-21 16h49.55.785297 -0400,
121,0,121,up,None,0.362235900000087,None,,,121,0,121,0,166.3004007000127,,,,,,,,,,,,,,,,,,,,166.29399860001286,166.3004007000127,167.06423400000494,167.05761170000187,1,167.05977859999985,167.06423400000494,167.06423400000494,167.55754200000956,167.55754200000956,167.55013280001003,up,167.55019160000666,167.5502223000076,None,0.362235900000087,None,,,,,,,,,,,004,001,2026-01-21_16h49.36.689,NESC3137_EEG_experiment,,2025.1.1,130.58478478756987,2026-01-21 16h49.55.785297 -0400,
122,0,122,down,None,0.35433390000252984,None,,,122,0,122,0,167.55754200000956,,,,,,,,,,,,,,,,,,,,167.55041860000347,167.55754200000956,168.32820360000187,168.321806500011,2,168.32425720000174,168.32820360000187,168.32820360000187,168.82139740001003,168.82139740001003,168.81488630000968,down,168.81495070000528,168.81498020001163,None,0.35433390000252984,None,,,,,,,,,,,004,001,2026-01-21_16h49.36.689,NESC3137_EEG_experiment,,2025.1.1,130.58478478756987,2026-01-21 16h49.55.785297 -0400,
123,0,123,up,None,0.37997619999805465,None,,,123,0,123,0,168.82139740001003,,,,,,,,,,,,,,,,,,,,168.8151663000026,168.82139740001003,169.81459900000482,169.80793360000825,1,169.81015680001292,169.81459900000482,169.81459900000482,170.3083040000056,170.3083040000056,170.30121370000415,up,170.30127870000433,170.30130730000383,None,0.37997619999805465,None,,,,,,,,,,,004,001,2026-01-21_16h49.36.689,NESC3137_EEG_experiment,,2025.1.1,130.58478478756987,2026-01-21 16h49.55.785297 -0400,
124,0,124,up,None,0.3394031000061659,None,,,124,0,124,0,170.3083040000056,,,,,,,,,,,,,,,,,,,,170.301515500003,170.3083040000056,171.07101570001396,171.0652979000006,1,171.06818850000855,171.07101570001396,171.07101570001396,171.5643090000085,171.5643090000085,171.5581632000103,up,171.55821590000414,171.55824360001134,None,0.3394031000061659,None,,,,,,,,,,,004,001,2026-01-21_16h49.36.689,NESC3137_EEG_experiment,,2025.1.1,130.58478478756987,2026-01-21 16h49.55.785297 -0400,
125,0,125,down,None,0.3966320000035921,None,,,125,0,125,0,171.5643090000085,,,,,,,,,,,,,,,,,,,,171.55841310000687,171.5643090000085,172.55776049999986,172.5514591000101,2,172.55361230000563,172.55776049999986,172.55776049999986,173.05115570001362,173.05115570001362,173.04394770000363,down,173.04401120000693,173.04404310000245,None,0.3966320000035921,None,,,,,,,,,,,004,001,2026-01-21_16h49.36.689,NESC3137_EEG_experiment,,2025.1.1,130.58478478756987,2026-01-21 16h49.55.785297 -0400,
126,0,126,down,None,0.39633620000677183,None,,,126,0,126,0,173.05115570001362,,,,,,,,,,,,,,,,,,,,173.04422630000045,173.05115570001362,173.97430260000692,173.96821490000002,2,173.97007430001395,173.97430260000692,173.97430260000692,174.46854610000446,174.46854610000446,174.46092400001362,down,174.46098760000314,174.46101530001033,None,0.39633620000677183,None,,,,,,,,,,,004,001,2026-01-21_16h49.36.689,NESC3137_EEG_experiment,,2025.1.1,130.58478478756987,2026-01-21 16h49.55.785297 -0400,
127,0,127,down,None,0.31180399999720976,0.11199230000784155,,,127,0,127,0,174.46854610000446,,,,,,,,,,,,,,,,,,,,174.46121510000376,174.46854610000446,175.37056770001072,175.36431060000905,2,175.36715860001277,175.37056770001072,175.37056770001072,175.86382969999977,175.86382969999977,175.8572431000066,down,175.85729770000034,175.85732970001118,None,0.31180399999720976,0.11199230000784155,,,,,,,,,,,004,001,2026-01-21_16h49.36.689,NESC3137_EEG_experiment,,2025.1.1,130.58478478756987,2026-01-21 16h49.55.785297 -0400,
128,0,128,down,None,0.35144870000658557,0.12012389999290463,,,128,0,128,0,175.86382969999977,,,,,,,,,,,,,,,,,,,,175.85750590001408,175.86382969999977,176.37096990000282,176.3645636000001,2,176.36728630001016,176.37096990000282,176.37096990000282,176.86441580000974,176.86441580000974,176.85688630001096,down,176.85694220000005,176.85697180000716,None,0.35144870000658557,0.12012389999290463,,,,,,,,,,,004,001,2026-01-21_16h49.36.689,NESC3137_EEG_experiment,,2025.1.1,130.58478478756987,2026-01-21 16h49.55.785297 -0400,
129,0,129,down,None,0.34589510000660084,0.10402610000164714,,,129,0,129,0,176.86441580000974,,,,,,,,,,,,,,,,,,,,176.85714170000574,176.86441580000974,177.75252120000368,177.74642430001404,2,177.7493445,177.75252120000368,177.75252120000368,178.24667490000138,178.24667490000138,178.23911920000683,down,178.2391745000059,178.23920130000624,None,0.34589510000660084,0.10402610000164714,,,,,,,,,,,004,001,2026-01-21_16h49.36.689,NESC3137_EEG_experiment,,2025.1.1,130.58478478756987,2026-01-21 16h49.55.785297 -0400,
130,0,130,down,None,0.3931813999952283,None,,,130,0,130,0,178.24667490000138,,,,,,,,,,,,,,,,,,,,178.2393379000132,178.24667490000138,178.745714100005,178.73964340001112,2,178.7416673000116,178.745714100005,178.745714100005,179.23971830001392,179.23971830001392,179.23323970001366,down,179.2333032000024,179.23332410000148,None,0.3931813999952283,None,,,,,,,,,,,004,001,2026-01-21_16h49.36.689,NESC3137_EEG_experiment,,2025.1.1,130.58478478756987,2026-01-21 16h49.55.785297 -0400,
131,0,131,down,None,0.3238035999966087,0.12017799999739509,,,131,0,131,0,179.23971830001392,,,,,,,,,,,,,,,,,,,,179.23345820000395,179.23971830001392,179.8785915000044,179.87108710000757,2,179.8732971999998,179.8785915000044,179.8785915000044,180.3711195000069,180.3711195000069,180.36488450001343,down,180.36493460000202,180.36495200000354,None,0.3238035999966087,0.12017799999739509,,,,,,,,,,,004,001,2026-01-21_16h49.36.689,NESC3137_EEG_experiment,,2025.1.1,130.58478478756987,2026-01-21 16h49.55.785297 -0400,
132,0,132,down,None,0.39010120001330506,None,,,132,0,132,0,180.3711195000069,,,,,,,,,,,,,,,,,,,,180.36509810001007,180.3711195000069,181.1005426000047,181.0942398000043,2,181.09635620001063,181.1005426000047,181.1005426000047,181.59419830000843,181.59419830000843,181.58722370000032,down,181.58728490000067,181.5873133000132,None,0.39010120001330506,None,,,,,,,,,,,004,001,2026-01-21_16h49.36.689,NESC3137_EEG_experiment,,2025.1.1,130.58478478756987,2026-01-21 16h49.55.785297 -0400,
133,0,133,down,None,0.33083769999211654,0.12072360000456683,,,133,0,133,0,181.59419830000843,,,,,,,,,,,,,,,,,,,,181.58751409999968,181.59419830000843,182.34356570000818,182.33765980000317,2,182.34046810001018,182.34356570000818,182.34356570000818,182.83702620000986,182.83702620000986,182.83052770000359,down,182.83058660000097,182.83061699999962,None,0.33083769999211654,0.12072360000456683,,,,,,,,,,,004,001,2026-01-21_16h49.36.689,NESC3137_EEG_experiment,,2025.1.1,130.58478478756987,2026-01-21 16h49.55.785297 -0400,
134,0,134,up,None,0.35621260000334587,None,,,134,0,134,0,182.83702620000986,,,,,,,,,,,,,,,,,,,,182.83080600001267,182.83702620000986,183.67011560000537,183.66421830000763,1,183.66616910000448,183.67011560000537,183.67011560000537,184.16386930001318,184.16386930001318,184.1571660000045,up,184.15723220001382,184.1572606000118,None,0.35621260000334587,None,,,,,,,,,,,004,001,2026-01-21_16h49.36.689,NESC3137_EEG_experiment,,2025.1.1,130.58478478756987,2026-01-21 16h49.55.785297 -0400,
135,0,135,up,None,0.38769760000286624,None,,,135,0,135,0,184.16386930001318,,,,,,,,,,,,,,,,,,,,184.15745650000463,184.16386930001318,184.82281650000368,184.81668990000617,1,184.81886590000067,184.82281650000368,184.82281650000368,185.31717360000766,185.31717360000766,185.30970690000686,up,185.3097557000001,185.30977310000162,None,0.38769760000286624,None,,,,,,,,,,,004,001,2026-01-21_16h49.36.689,NESC3137_EEG_experiment,,2025.1.1,130.58478478756987,2026-01-21 16h49.55.785297 -0400,
136,0,136,down,None,0.42896060000930447,None,,,136,0,136,0,185.31717360000766,,,,,,,,,,,,,,,,,,,,185.30994090001332,185.31717360000766,186.20540520000213,186.19938120000006,2,186.20263080000586,186.20540520000213,186.20540520000213,186.6988568000088,186.6988568000088,186.69191630001296,down,186.69196690000535,186.69198510001297,None,0.42896060000930447,None,,,,,,,,,,,004,001,2026-01-21_16h49.36.689,NESC3137_EEG_experiment,,2025.1.1,130.58478478756987,2026-01-21 16h49.55.785297 -0400,
137,0,137,None,None,,,,,137,0,137,0,186.6988568000088,,,,,,,,,,,,,,,,,,,,186.6921166000102,186.6988568000088,187.26820150000276,187.2620331000071,2,187.26470150001114,187.26820150000276,187.26820150000276,187.76167440001154,187.76167440001154,187.75417930001277,None,187.754230800012,187.7542628000083,None,,,,,,,,,,,,,004,001,2026-01-21_16h49.36.689,NESC3137_EEG_experiment,,2025.1.1,130.58478478756987,2026-01-21 16h49.55.785297 -0400,
138,0,138,down,None,0.3843756999995094,None,,,138,0,138,0,187.76167440001154,,,,,,,,,,,,,,,,,,,,187.75439830000687,187.76167440001154,188.5460841000022,188.5400007999997,2,188.5428435000067,188.5460841000022,188.5460841000022,189.03940320000402,189.03940320000402,189.03206730000966,down,189.03212310001254,189.0321510000067,None,0.3843756999995094,None,,,,,,,,,,,004,001,2026-01-21_16h49.36.689,NESC3137_EEG_experiment,,2025.1.1,130.58478478756987,2026-01-21 16h49.55.785297 -0400,
139,0,139,down,None,0.3529201999917859,0.039956799999345094,,,139,0,139,0,189.03940320000402,,,,,,,,,,,,,,,,,,,,189.03232910000952,189.03940320000402,189.76145260001067,189.75512150001305,1,189.75732500001322,189.76145260001067,189.76145260001067,190.2548977000115,190.2548977000115,190.24802030000137,down,190.2480940000096,190.24812410000595,None,0.3529201999917859,0.039956799999345094,,,,,,,,,,,004,001,2026-01-21_16h49.36.689,NESC3137_EEG_experiment,,2025.1.1,130.58478478756987,2026-01-21 16h49.55.785297 -0400,
140,0,140,up,None,0.4176230000011856,None,,,140,0,140,0,190.2548977000115,,,,,,,,,,,,,,,,,,,,190.24831590001122,190.2548977000115,191.18489380000392,191.17901380000694,1,191.18133710000257,191.18489380000392,191.18489380000392,191.67857360000198,191.67857360000198,191.67171190000954,up,191.67177080000693,191.67180240000016,None,0.4176230000011856,None,,,,,,,,,,,004,001,2026-01-21_16h49.36.689,NESC3137_EEG_experiment,,2025.1.1,130.58478478756987,2026-01-21 16h49.55.785297 -0400,
141,0,141,up,None,0.353269300001557,None,,,141,0,141,0,191.67857360000198,,,,,,,,,,,,,,,,,,,,191.6719876999996,191.67857360000198,192.60909780001384,192.60272180000902,1,192.6051667000138,192.60909780001384,192.60909780001384,193.10240140001406,193.10240140001406,193.0951911000011,up,193.09524280000187,193.09527010000602,None,0.353269300001557,None,,,,,,,,,,,004,001,2026-01-21_16h49.36.689,NESC3137_EEG_experiment,,2025.1.1,130.58478478756987,2026-01-21 16h49.55.785297 -0400,
142,0,142,up,None,0.4164147999981651,None,,,142,0,142,0,193.10240140001406,,,,,,,,,,,,,,,,,,,,193.09543290000875,193.10240140001406,193.76205430000846,193.7551414000045,1,193.75715580000542,193.76205430000846,193.76205430000846,194.2551458000089,194.2551458000089,194.24898410000606,up,194.24903770000674,194.2490647000086,None,0.4164147999981651,None,,,,,,,,,,,004,001,2026-01-21_16h49.36.689,NESC3137_EEG_experiment,,2025.1.1,130.58478478756987,2026-01-21 16h49.55.785297 -0400,
143,0,143,up,None,0.3495225999940885,None,,,143,0,143,0,194.2551458000089,,,,,,,,,,,,,,,,,,,,194.24928120001277,194.2551458000089,195.1089556000079,195.102967800005,1,195.1059254000138,195.1089556000079,195.1089556000079,195.60270510001283,195.60270510001283,195.59683060001407,up,195.59690180000325,195.59692900000664,None,0.3495225999940885,None,,,,,,,,,,,004,001,2026-01-21_16h49.36.689,NESC3137_EEG_experiment,,2025.1.1,130.58478478756987,2026-01-21 16h49.55.785297 -0400,
144,0,144,down,None,0.3737963000021409,None,,,144,0,144,0,195.60270510001283,,,,,,,,,,,,,,,,,,,,195.59711970000353,195.60270510001283,196.48450560000492,196.47807890000695,2,196.48051269999996,196.48450560000492,196.48450560000492,196.97787160000007,196.97787160000007,196.97064630000386,down,196.97070400000666,196.97073450000607,None,0.3737963000021409,None,,,,,,,,,,,004,001,2026-01-21_16h49.36.689,NESC3137_EEG_experiment,,2025.1.1,130.58478478756987,2026-01-21 16h49.55.785297 -0400,
145,0,145,up,None,0.35279109999828506,None,,,145,0,145,0,196.97787160000007,,,,,,,,,,,,,,,,,,,,196.97094370001287,196.97787160000007,197.67382010001165,197.66612780001014,1,197.6692968000134,197.67382010001165,197.67382010001165,198.16554860000906,198.16554860000906,198.15885479999997,up,198.15891870000632,198.15894610001124,None,0.35279109999828506,None,,,,,,,,,,,004,001,2026-01-21_16h49.36.689,NESC3137_EEG_experiment,,2025.1.1,130.58478478756987,2026-01-21 16h49.55.785297 -0400,
146,0,146,None,None,,,,,146,0,146,0,198.16554860000906,,,,,,,,,,,,,,,,,,,,198.15911340000457,198.16554860000906,198.6999336000008,198.69342720000714,1,198.69553900000756,198.6999336000008,198.6999336000008,199.19344260000798,199.19344260000798,199.18617640000593,None,199.18622780000442,199.18625790000078,None,,,,,,,,,,,,,004,001,2026-01-21_16h49.36.689,NESC3137_EEG_experiment,,2025.1.1,130.58478478756987,2026-01-21 16h49.55.785297 -0400,
147,0,147,down,None,0.42940369999269024,None,,,147,0,147,0,199.19344260000798,,,,,,,,,,,,,,,,,,,,199.18644280001172,199.19344260000798,199.69299370000954,199.68705880000198,2,199.6895027999999,199.69299370000954,199.69299370000954,200.1867554000055,200.1867554000055,200.17970750000677,down,200.17975590001151,200.17977370000153,None,0.42940369999269024,None,,,,,,,,,,,004,001,2026-01-21_16h49.36.689,NESC3137_EEG_experiment,,2025.1.1,130.58478478756987,2026-01-21 16h49.55.785297 -0400,
148,0,148,None,None,,,,,148,0,148,0,200.1867554000055,,,,,,,,,,,,,,,,,,,,200.179896200003,200.1867554000055,200.75571210001362,200.74935270000424,2,200.75163200001407,200.75571210001362,200.75571210001362,201.2492409000115,201.2492409000115,201.24236090001068,None,201.2424069000117,201.24244650000765,None,,,,,,,,,,,,,004,001,2026-01-21_16h49.36.689,NESC3137_EEG_experiment,,2025.1.1,130.58478478756987,2026-01-21 16h49.55.785297 -0400,
149,0,149,down,None,0.4681689999997616,None,,,149,0,149,0,201.2492409000115,,,,,,,,,,,,,,,,,,,,201.242633700007,201.2492409000115,202.21416640000825,202.207839900002,2,202.2098493000085,202.21416640000825,202.21416640000825,202.70766650000587,202.70766650000587,202.70057360001374,down,202.70064080000157,202.70067180000478,None,0.4681689999997616,None,,,,,,,,,,,004,001,2026-01-21_16h49.36.689,NESC3137_EEG_experiment,,2025.1.1,130.58478478756987,2026-01-21 16h49.55.785297 -0400,
150,0,150,down,None,0.3282274000084726,0.11998769998899661,,,150,0,150,0,202.70766650000587,,,,,,,,,,,,,,,,,,,,202.70086870000523,202.70766650000587,203.5061499000003,203.4996295000019,2,203.50206700000854,203.5061499000003,203.5061499000003,203.9995048000128,203.9995048000128,203.9931615000096,down,203.9932378000085,203.9932642000058,None,0.3282274000084726,0.11998769998899661,,,,,,,,,,,004,001,2026-01-21_16h49.36.689,NESC3137_EEG_experiment,,2025.1.1,130.58478478756987,2026-01-21 16h49.55.785297 -0400,
151,0,151,down,None,0.3339609999966342,0.1120253999979468,,,151,0,151,0,203.9995048000128,,,,,,,,,,,,,,,,,,,,203.99342910000996,203.9995048000128,204.7564499,204.7499489000038,2,204.75223910000932,204.7564499,204.7564499,205.2497957000014,205.2497957000014,205.24304940000002,down,205.24310470001365,205.24313300001086,None,0.3339609999966342,0.1120253999979468,,,,,,,,,,,004,001,2026-01-21_16h49.36.689,NESC3137_EEG_experiment,,2025.1.1,130.58478478756987,2026-01-21 16h49.55.785297 -0400,
152,0,152,up,None,0.41338479999103583,None,,,152,0,152,0,205.2497957000014,,,,,,,,,,,,,,,,,,,,205.24334120001004,205.2497957000014,205.80510380001215,205.79853220000223,1,205.8006688000023,205.80510380001215,205.80510380001215,206.29854290001094,206.29854290001094,206.2920635000046,up,206.2921328000084,206.29216590001306,None,0.41338479999103583,None,,,,,,,,,,,004,001,2026-01-21_16h49.36.689,NESC3137_EEG_experiment,,2025.1.1,130.58478478756987,2026-01-21 16h49.55.785297 -0400,
153,0,153,up,None,0.4062506000045687,None,,,153,0,153,0,206.29854290001094,,,,,,,,,,,,,,,,,,,,206.2923579000053,206.29854290001094,207.23615810000047,207.22920080000767,1,207.23117940001248,207.23615810000047,207.23615810000047,207.72932600000058,207.72932600000058,207.72301800000423,up,207.72310040000593,207.72313310000754,None,0.4062506000045687,None,,,,,,,,,,,004,001,2026-01-21_16h49.36.689,NESC3137_EEG_experiment,,2025.1.1,130.58478478756987,2026-01-21 16h49.55.785297 -0400,
154,0,154,down,None,0.3888773999933619,None,,,154,0,154,0,207.72932600000058,,,,,,,,,,,,,,,,,,,,207.72334670000419,207.72932600000058,208.38176830000884,208.37637050000194,2,208.37938510000822,208.38176830000884,208.38176830000884,208.87508090000483,208.87508090000483,208.86866050001117,down,208.8687202000001,208.86874910000188,None,0.3888773999933619,None,,,,,,,,,,,004,001,2026-01-21_16h49.36.689,NESC3137_EEG_experiment,,2025.1.1,130.58478478756987,2026-01-21 16h49.55.785297 -0400,
155,0,155,down,None,0.38281340000685304,None,,,155,0,155,0,208.87508090000483,,,,,,,,,,,,,,,,,,,,208.8689626000123,208.87508090000483,209.3958682000084,209.39010420000704,2,209.3926586000016,209.3958682000084,209.3958682000084,209.88928240000678,209.88928240000678,209.88241430000926,down,209.88247790001333,209.88250820001122,None,0.38281340000685304,None,,,,,,,,,,,004,001,2026-01-21_16h49.36.689,NESC3137_EEG_experiment,,2025.1.1,130.58478478756987,2026-01-21 16h49.55.785297 -0400,
156,0,156,down,None,0.3747148000111338,None,,,156,0,156,0,209.88928240000678,,,,,,,,,,,,,,,,,,,,209.8826958000136,209.88928240000678,210.8679189000104,210.86166790001153,2,210.8641692000092,210.8679189000104,210.8679189000104,211.36183449999953,211.36183449999953,211.3549606000015,down,211.35500460000185,211.35502210000413,None,0.3747148000111338,None,,,,,,,,,,,004,001,2026-01-21_16h49.36.689,NESC3137_EEG_experiment,,2025.1.1,130.58478478756987,2026-01-21 16h49.55.785297 -0400,
157,0,157,down,None,0.32309920000261627,0.14413090000743978,,,157,0,157,0,211.36183449999953,,,,,,,,,,,,,,,,,,,,211.35516030000872,211.36183449999953,212.11133900001005,212.10518850000517,2,212.10739100001229,212.11133900001005,212.11133900001005,212.60494650001056,212.60494650001056,212.59833260001324,down,212.59839730001113,212.59842770000978,None,0.32309920000261627,0.14413090000743978,,,,,,,,,,,004,001,2026-01-21_16h49.36.689,NESC3137_EEG_experiment,,2025.1.1,130.58478478756987,2026-01-21 16h49.55.785297 -0400,
158,0,158,down,None,0.354380000004312,None,,,158,0,158,0,212.60494650001056,,,,,,,,,,,,,,,,,,,,212.5986394000065,212.60494650001056,213.3614910000033,213.35517750000872,2,213.3572959000012,213.3614910000033,213.3614910000033,213.85534720000578,213.85534720000578,213.84777910000412,down,213.84783820000303,213.84786920000624,None,0.354380000004312,None,,,,,,,,,,,004,001,2026-01-21_16h49.36.689,NESC3137_EEG_experiment,,2025.1.1,130.58478478756987,2026-01-21 16h49.55.785297 -0400,
159,0,159,down,None,0.33572790000471286,None,,,159,0,159,0,213.85534720000578,,,,,,,,,,,,,,,,,,,,213.84805050000432,213.85534720000578,214.72276810000767,214.71712760000082,2,214.72009040000557,214.72276810000767,214.72276810000767,215.21631909999996,215.21631909999996,215.2098602000042,down,215.20991430000868,215.2099326000025,None,0.33572790000471286,None,,,,,,,,,,,004,001,2026-01-21_16h49.36.689,NESC3137_EEG_experiment,,2025.1.1,130.58478478756987,2026-01-21 16h49.55.785297 -0400,
160,0,160,up,None,0.4666850999929011,None,,,160,0,160,0,215.21631909999996,,,,,,,,,,,,,,,,,,,,215.21006340000895,215.21631909999996,215.799763300005,215.79298380001273,1,215.79558570000518,215.799763300005,215.799763300005,216.29234310000902,216.29234310000902,216.28644850000273,up,216.28650720001315,216.28653550001036,None,0.4666850999929011,None,,,,,,,,,,,004,001,2026-01-21_16h49.36.689,NESC3137_EEG_experiment,,2025.1.1,130.58478478756987,2026-01-21 16h49.55.785297 -0400,
161,0,161,down,None,0.40181109998957254,None,,,161,0,161,0,216.29234310000902,,,,,,,,,,,,,,,,,,,,216.28670650000277,216.29234310000902,216.8487552000006,216.8424312999996,2,216.84527860001253,216.8487552000006,216.8487552000006,217.3422247000126,217.3422247000126,217.33510820000083,down,217.3351827000006,217.3352140000061,None,0.40181109998957254,None,,,,,,,,,,,004,001,2026-01-21_16h49.36.689,NESC3137_EEG_experiment,,2025.1.1,130.58478478756987,2026-01-21 16h49.55.785297 -0400,
162,0,162,up,None,0.4358621999999741,None,,,162,0,162,0,217.3422247000126,,,,,,,,,,,,,,,,,,,,217.33540750000975,217.3422247000126,218.07053900000756,218.06418040000426,1,218.06644950000918,218.07053900000756,218.07053900000756,218.5642652000097,218.5642652000097,218.55734830000438,up,218.55741160000616,218.55746670000372,None,0.4358621999999741,None,,,,,,,,,,,004,001,2026-01-21_16h49.36.689,NESC3137_EEG_experiment,,2025.1.1,130.58478478756987,2026-01-21 16h49.55.785297 -0400,
163,0,163,down,None,0.3817931000085082,None,,,163,0,163,0,218.5642652000097,,,,,,,,,,,,,,,,,,,,218.55766550000408,218.5642652000097,219.1888045000087,219.18191320000915,2,219.18427630000224,219.1888045000087,219.1888045000087,219.68259540000872,219.68259540000872,219.67560070000764,down,219.6756591000012,219.67570320000232,None,0.3817931000085082,None,,,,,,,,,,,004,001,2026-01-21_16h49.36.689,NESC3137_EEG_experiment,,2025.1.1,130.58478478756987,2026-01-21 16h49.55.785297 -0400,
164,0,164,up,None,0.33777879999252036,None,,,164,0,164,0,219.68259540000872,,,,,,,,,,,,,,,,,,,,219.67589600000065,219.68259540000872,220.64061560000118,220.63413400000718,1,220.636814100013,220.64061560000118,220.64061560000118,221.1338422000117,221.1338422000117,221.12661240001034,up,221.12667000001238,221.12670030001027,None,0.33777879999252036,None,,,,,,,,,,,004,001,2026-01-21_16h49.36.689,NESC3137_EEG_experiment,,2025.1.1,130.58478478756987,2026-01-21 16h49.55.785297 -0400,
165,0,165,down,None,0.3533154999895487,0.12004840000008699,,,165,0,165,0,221.1338422000117,,,,,,,,,,,,,,,,,,,,221.12691400000767,221.1338422000117,222.05709630000638,222.05097430000023,2,222.05327899999975,222.05709630000638,222.05709630000638,222.55035650001082,222.55035650001082,222.54405160000897,down,222.54411060000712,222.54413880000357,None,0.3533154999895487,0.12004840000008699,,,,,,,,,,,004,001,2026-01-21_16h49.36.689,NESC3137_EEG_experiment,,2025.1.1,130.58478478756987,2026-01-21 16h49.55.785297 -0400,
166,0,166,up,None,0.4347637000028044,None,,,166,0,166,0,222.55035650001082,,,,,,,,,,,,,,,,,,,,222.5443484000134,222.55035650001082,223.11973930000386,223.11366140001337,1,223.11567220000143,223.11973930000386,223.11973930000386,223.61324630001036,223.61324630001036,223.60675980000815,up,223.60683110001264,223.60686410000199,None,0.4347637000028044,None,,,,,,,,,,,004,001,2026-01-21_16h49.36.689,NESC3137_EEG_experiment,,2025.1.1,130.58478478756987,2026-01-21 16h49.55.785297 -0400,
167,0,167,down,None,0.3958033999952022,None,,,167,0,167,0,223.61324630001036,,,,,,,,,,,,,,,,,,,,223.60709140000108,223.61324630001036,224.55077910001273,224.54435670000385,2,224.54705040001136,224.55077910001273,224.55077910001273,225.04371250000258,225.04371250000258,225.03724580000562,down,225.03730130000622,225.03732830000808,None,0.3958033999952022,None,,,,,,,,,,,004,001,2026-01-21_16h49.36.689,NESC3137_EEG_experiment,,2025.1.1,130.58478478756987,2026-01-21 16h49.55.785297 -0400,
168,0,168,up,None,0.31421810000028927,None,,,168,0,168,0,225.04371250000258,,,,,,,,,,,,,,,,,,,,225.03745160000108,225.04371250000258,225.75213530000474,225.74588190000213,1,225.74802389999968,225.75213530000474,225.75213530000474,226.24548710000818,226.24548710000818,226.23884110001381,up,226.23888120001357,226.23890030001348,None,0.31421810000028927,None,,,,,,,,,,,004,001,2026-01-21_16h49.36.689,NESC3137_EEG_experiment,,2025.1.1,130.58478478756987,2026-01-21 16h49.55.785297 -0400,
169,0,169,down,None,0.3608825999981491,None,,,169,0,169,0,226.24548710000818,,,,,,,,,,,,,,,,,,,,226.23901810000825,226.24548710000818,227.11364710000635,227.10672270000214,2,227.10869650001405,227.11364710000635,227.11364710000635,227.60683060000883,227.60683060000883,227.60052780000842,down,227.60058200001367,227.60060160000285,None,0.3608825999981491,None,,,,,,,,,,,004,001,2026-01-21_16h49.36.689,NESC3137_EEG_experiment,,2025.1.1,130.58478478756987,2026-01-21 16h49.55.785297 -0400,
170,0,170,down,None,0.4328344000095967,None,,,170,0,170,0,227.60683060000883,,,,,,,,,,,,,,,,,,,,227.60076440000557,227.60683060000883,228.58573240000987,228.5794489000109,2,228.58171010001388,228.58573240000987,228.58573240000987,229.07907470001373,229.07907470001373,229.07280980001087,down,229.07287329999963,229.07290700000885,None,0.4328344000095967,None,,,,,,,,,,,004,001,2026-01-21_16h49.36.689,NESC3137_EEG_experiment,,2025.1.1,130.58478478756987,2026-01-21 16h49.55.785297 -0400,
171,0,171,None,None,,,,,171,0,171,0,229.07907470001373,,,,,,,,,,,,,,,,,,,,229.07309380000515,229.07907470001373,229.95385750000423,229.94774510001298,2,229.9505019000062,229.95385750000423,229.95385750000423,230.44735120001133,230.44735120001133,230.4409030000097,None,230.44095290001133,230.44098070000473,None,,,,,,,,,,,,,004,001,2026-01-21_16h49.36.689,NESC3137_EEG_experiment,,2025.1.1,130.58478478756987,2026-01-21 16h49.55.785297 -0400,
172,0,172,down,None,0.3903046000050381,None,,,172,0,172,0,230.44735120001133,,,,,,,,,,,,,,,,,,,,230.44113390000712,230.44735120001133,231.30827630001295,231.30206790000375,2,231.30415450000146,231.30827630001295,231.30827630001295,231.80195930000627,231.80195930000627,231.7948633000051,down,231.7949287000083,231.79495800001314,None,0.3903046000050381,None,,,,,,,,,,,004,001,2026-01-21_16h49.36.689,NESC3137_EEG_experiment,,2025.1.1,130.58478478756987,2026-01-21 16h49.55.785297 -0400,
173,0,173,down,None,0.3701985999941826,None,,,173,0,173,0,231.80195930000627,,,,,,,,,,,,,,,,,,,,231.79516150000563,231.80195930000627,232.440287800011,232.43442340000183,2,232.4364925000118,232.440287800011,232.440287800011,232.93362100000377,232.93362100000377,232.9275481000077,down,232.92761710000923,232.92764880000323,None,0.3701985999941826,None,,,,,,,,,,,004,001,2026-01-21_16h49.36.689,NESC3137_EEG_experiment,,2025.1.1,130.58478478756987,2026-01-21 16h49.55.785297 -0400,
174,0,174,down,None,0.3488929000013741,None,,,174,0,174,0,232.93362100000377,,,,,,,,,,,,,,,,,,,,232.92789900000207,232.93362100000377,233.72563650000666,233.71921050001401,2,233.72201560001122,233.72563650000666,233.72563650000666,234.21886800001084,234.21886800001084,234.21214340000006,down,234.21221940001124,234.21225320000667,None,0.3488929000013741,None,,,,,,,,,,,004,001,2026-01-21_16h49.36.689,NESC3137_EEG_experiment,,2025.1.1,130.58478478756987,2026-01-21 16h49.55.785297 -0400,
175,0,175,down,None,0.4091259999986505,None,,,175,0,175,0,234.21886800001084,,,,,,,,,,,,,,,,,,,,234.21245900000213,234.21886800001084,234.75332070000877,234.74734290000924,2,234.74971960000403,234.75332070000877,234.75332070000877,235.24694770001224,235.24694770001224,235.23961650001002,down,235.23967670000275,235.23970800000825,None,0.4091259999986505,None,,,,,,,,,,,004,001,2026-01-21_16h49.36.689,NESC3137_EEG_experiment,,2025.1.1,130.58478478756987,2026-01-21 16h49.55.785297 -0400,
176,0,176,up,None,0.4650560000009136,None,,,176,0,176,0,235.24694770001224,,,,,,,,,,,,,,,,,,,,235.23989720000827,235.24694770001224,235.75350840001192,235.74799970000458,1,235.75081730000966,235.75350840001192,235.75350840001192,236.2468865000119,236.2468865000119,236.24025729999994,up,236.24030080001103,236.2403178000095,None,0.4650560000009136,None,,,,,,,,,,,004,001,2026-01-21_16h49.36.689,NESC3137_EEG_experiment,,2025.1.1,130.58478478756987,2026-01-21 16h49.55.785297 -0400,
177,0,177,up,None,0.4470230000006268,None,,,177,0,177,0,236.2468865000119,,,,,,,,,,,,,,,,,,,,236.240455200008,236.2468865000119,236.79548369999975,236.78909090001252,1,236.79171360000328,236.79548369999975,236.79548369999975,237.28875210000842,237.28875210000842,237.28199270000914,up,237.28205460000027,237.28208450000966,None,0.4470230000006268,None,,,,,,,,,,,004,001,2026-01-21_16h49.36.689,NESC3137_EEG_experiment,,2025.1.1,130.58478478756987,2026-01-21 16h49.55.785297 -0400,
178,0,178,up,None,0.40013019999605604,None,,,178,0,178,0,237.28875210000842,,,,,,,,,,,,,,,,,,,,237.28226990000985,237.28875210000842,238.27432020001288,238.2680371000024,1,238.27033500000834,238.27432020001288,238.27432020001288,238.76852860000508,238.76852860000508,238.7610529000085,up,238.76112830000056,238.7611612000037,None,0.40013019999605604,None,,,,,,,,,,,004,001,2026-01-21_16h49.36.689,NESC3137_EEG_experiment,,2025.1.1,130.58478478756987,2026-01-21 16h49.55.785297 -0400,
179,0,179,down,None,0.4062959000002593,None,,,179,0,179,0,238.76852860000508,,,,,,,,,,,,,,,,,,,,238.7613882000005,238.76852860000508,239.58010150000337,239.5740330000117,2,239.57639980000386,239.58010150000337,239.58010150000337,240.07404730000417,240.07404730000417,240.06732270000794,down,240.06738420001057,240.06740590000118,None,0.4062959000002593,None,,,,,,,,,,,004,001,2026-01-21_16h49.36.689,NESC3137_EEG_experiment,,2025.1.1,130.58478478756987,2026-01-21 16h49.55.785297 -0400,
180,0,180,down,None,0.3944396000006236,None,,,180,0,180,0,240.07404730000417,,,,,,,,,,,,,,,,,,,,240.06761860000552,240.07404730000417,240.60807380000188,240.60223460000998,2,240.60459380000248,240.60807380000188,240.60807380000188,241.10168050001084,241.10168050001084,241.0949993000104,down,241.0950559000048,241.09508490000735,None,0.3944396000006236,None,,,,,,,,,,,004,001,2026-01-21_16h49.36.689,NESC3137_EEG_experiment,,2025.1.1,130.58478478756987,2026-01-21 16h49.55.785297 -0400,
181,0,181,down,None,0.37161380000179633,None,,,181,0,181,0,241.10168050001084,,,,,,,,,,,,,,,,,,,,241.0952537000121,241.10168050001084,241.7749327000056,241.76901220000582,2,241.77141360001406,241.7749327000056,241.7749327000056,242.26855600001,242.26855600001,242.26191560000007,down,242.261974500012,242.26200250000693,None,0.37161380000179633,None,,,,,,,,,,,004,001,2026-01-21_16h49.36.689,NESC3137_EEG_experiment,,2025.1.1,130.58478478756987,2026-01-21 16h49.55.785297 -0400,
182,0,182,down,None,0.35264909999386873,0.10395870001229923,,,182,0,182,0,242.26855600001,,,,,,,,,,,,,,,,,,,,242.26217720001296,242.26855600001,243.17783100000815,243.17154730000766,2,243.1743475000112,243.17783100000815,243.17783100000815,243.67156330001308,243.67156330001308,243.6647198000137,down,243.66476180001337,243.66477920000034,None,0.35264909999386873,0.10395870001229923,,,,,,,,,,,004,001,2026-01-21_16h49.36.689,NESC3137_EEG_experiment,,2025.1.1,130.58478478756987,2026-01-21 16h49.55.785297 -0400,
183,0,183,up,None,0.3500832999998238,0.12000939999416005,,,183,0,183,0,243.67156330001308,,,,,,,,,,,,,,,,,,,,243.66491490000044,243.67156330001308,244.53236820000166,244.52588980000291,1,244.5283008000115,244.53236820000166,244.53236820000166,245.0265844000096,245.0265844000096,245.01986490000854,up,245.01991490001092,245.0199360000115,None,0.3500832999998238,0.12000939999416005,,,,,,,,,,,004,001,2026-01-21_16h49.36.689,NESC3137_EEG_experiment,,2025.1.1,130.58478478756987,2026-01-21 16h49.55.785297 -0400,
184,0,184,up,None,0.40356550000433344,None,,,184,0,184,0,245.0265844000096,,,,,,,,,,,,,,,,,,,,245.02014860000054,245.0265844000096,245.99092680000467,245.98464170000807,1,245.9876712000114,245.99092680000467,245.99092680000467,246.484311600012,246.484311600012,246.4773994999996,up,246.4774521000072,246.4774793000106,None,0.40356550000433344,None,,,,,,,,,,,004,001,2026-01-21_16h49.36.689,NESC3137_EEG_experiment,,2025.1.1,130.58478478756987,2026-01-21 16h49.55.785297 -0400,
185,0,185,down,None,0.4213610000006156,None,,,185,0,185,0,246.484311600012,,,,,,,,,,,,,,,,,,,,246.47764800000004,246.484311600012,247.213095900006,247.20687950000865,2,247.2091216000117,247.213095900006,247.213095900006,247.70690920000197,247.70690920000197,247.70058930000232,down,247.70067070001096,247.70070040000428,None,0.4213610000006156,None,,,,,,,,,,,004,001,2026-01-21_16h49.36.689,NESC3137_EEG_experiment,,2025.1.1,130.58478478756987,2026-01-21 16h49.55.785297 -0400,
186,0,186,up,None,0.3251910999970278,0.13603819999843836,,,186,0,186,0,247.70690920000197,,,,,,,,,,,,,,,,,,,,247.70090080000227,247.70690920000197,248.58128730001044,248.57530860000406,1,248.577749700009,248.58128730001044,248.58128730001044,249.07487270000274,249.07487270000274,249.06843710000976,up,249.06850110000232,249.06853010000486,None,0.3251910999970278,0.13603819999843836,,,,,,,,,,,004,001,2026-01-21_16h49.36.689,NESC3137_EEG_experiment,,2025.1.1,130.58478478756987,2026-01-21 16h49.55.785297 -0400,
187,0,187,up,None,0.3581514999968931,None,,,187,0,187,0,249.07487270000274,,,,,,,,,,,,,,,,,,,,249.06873030000133,249.07487270000274,250.01229690000764,250.00628549999965,1,250.00938830000814,250.01229690000764,250.01229690000764,250.50558500000625,250.50558500000625,250.49843960000726,up,250.4984950000071,250.49852370000735,None,0.3581514999968931,None,,,,,,,,,,,004,001,2026-01-21_16h49.36.689,NESC3137_EEG_experiment,,2025.1.1,130.58478478756987,2026-01-21 16h49.55.785297 -0400,
188,0,188,up,None,0.3932910000003176,None,,,188,0,188,0,250.50558500000625,,,,,,,,,,,,,,,,,,,,250.4986978000088,250.50558500000625,251.29722250001214,251.29080570000224,1,251.29326940000465,251.29722250001214,251.29722250001214,251.7908208000008,251.7908208000008,251.78406520000135,up,251.78413330001058,251.78415520000271,None,0.3932910000003176,None,,,,,,,,,,,004,001,2026-01-21_16h49.36.689,NESC3137_EEG_experiment,,2025.1.1,130.58478478756987,2026-01-21 16h49.55.785297 -0400,
189,0,189,None,None,,,,,189,0,189,0,251.7908208000008,,,,,,,,,,,,,,,,,,,,251.78434410000045,251.7908208000008,252.5057577000116,252.4990225000074,2,252.50128350000887,252.5057577000116,252.5057577000116,252.99931220000144,252.99931220000144,252.99271489999956,None,252.99277100000472,252.9928043000109,None,,,,,,,,,,,,,004,001,2026-01-21_16h49.36.689,NESC3137_EEG_experiment,,2025.1.1,130.58478478756987,2026-01-21 16h49.55.785297 -0400,
190,0,190,up,None,0.338884800003143,None,,,190,0,190,0,252.99931220000144,,,,,,,,,,,,,,,,,,,,252.99299850000534,252.99931220000144,253.51961909999955,253.51350770000136,1,253.5159249999997,253.51961909999955,253.51961909999955,254.01318020001054,254.01318020001054,254.0067385000002,up,254.00679270000546,254.00682020001113,None,0.338884800003143,None,,,,,,,,,,,004,001,2026-01-21_16h49.36.689,NESC3137_EEG_experiment,,2025.1.1,130.58478478756987,2026-01-21 16h49.55.785297 -0400,
191,0,191,up,None,0.3285784000036074,0.1438415000011446,,,191,0,191,0,254.01318020001054,,,,,,,,,,,,,,,,,,,,254.0070018000115,254.01318020001054,254.55431820001104,254.5480064000003,1,254.55057370000577,254.55431820001104,254.55431820001104,255.04827480000677,255.04827480000677,255.04154050000943,up,255.04160790001333,255.0416380000097,None,0.3285784000036074,0.1438415000011446,,,,,,,,,,,004,001,2026-01-21_16h49.36.689,NESC3137_EEG_experiment,,2025.1.1,130.58478478756987,2026-01-21 16h49.55.785297 -0400,
192,0,192,None,None,,,,,192,0,192,0,255.04827480000677,,,,,,,,,,,,,,,,,,,,255.0418706000055,255.04827480000677,255.7835638000106,255.7777824000077,1,255.78100780000386,255.7835638000106,255.7835638000106,256.27729810000164,256.27729810000164,256.2705696000048,None,256.2706157000066,256.2706446000084,None,,,,,,,,,,,,,004,001,2026-01-21_16h49.36.689,NESC3137_EEG_experiment,,2025.1.1,130.58478478756987,2026-01-21 16h49.55.785297 -0400,
193,0,193,down,None,0.4270267999963835,None,,,193,0,193,0,256.27729810000164,,,,,,,,,,,,,,,,,,,,256.2707955000078,256.27729810000164,256.83936920000997,256.8336655000021,2,256.83656429999974,256.83936920000997,256.83936920000997,257.3324363000138,257.3324363000138,257.32598960000905,down,257.32604900001024,257.32607610001287,None,0.4270267999963835,None,,,,,,,,,,,004,001,2026-01-21_16h49.36.689,NESC3137_EEG_experiment,,2025.1.1,130.58478478756987,2026-01-21 16h49.55.785297 -0400,
194,0,194,None,None,,,,,194,0,194,0,257.3324363000138,,,,,,,,,,,,,,,,,,,,257.32624990001204,257.3324363000138,258.0344421000045,258.02717600000324,2,258.02979920001235,258.0344421000045,258.0344421000045,258.5278391000029,258.5278391000029,258.5203792000102,None,258.5204303000064,258.52046320000954,None,,,,,,,,,,,,,004,001,2026-01-21_16h49.36.689,NESC3137_EEG_experiment,,2025.1.1,130.58478478756987,2026-01-21 16h49.55.785297 -0400,
195,0,195,up,None,0.34701710000808816,0.11986939999042079,,,195,0,195,0,258.5278391000029,,,,,,,,,,,,,,,,,,,,258.5206529999996,258.5278391000029,259.4716817000008,259.4654942000052,1,259.4678646000102,259.4716817000008,259.4716817000008,259.96503280001343,259.96503280001343,259.9589985000057,up,259.95906050001213,259.95908830000553,None,0.34701710000808816,0.11986939999042079,,,,,,,,,,,004,001,2026-01-21_16h49.36.689,NESC3137_EEG_experiment,,2025.1.1,130.58478478756987,2026-01-21 16h49.55.785297 -0400,
196,0,196,down,None,0.3805350000038743,None,,,196,0,196,0,259.96503280001343,,,,,,,,,,,,,,,,,,,,259.9592891000066,259.96503280001343,260.75000500000897,260.74320960001205,2,260.7453169000073,260.75000500000897,260.75000500000897,261.24345970001013,261.24345970001013,261.2363970000006,down,261.23645800001395,261.23647610000626,None,0.3805350000038743,None,,,,,,,,,,,004,001,2026-01-21_16h49.36.689,NESC3137_EEG_experiment,,2025.1.1,130.58478478756987,2026-01-21 16h49.55.785297 -0400,
197,0,197,up,None,0.41339940000034403,None,,,197,0,197,0,261.24345970001013,,,,,,,,,,,,,,,,,,,,261.23664140001347,261.24345970001013,261.7570585000067,261.74989770000684,1,261.75208060001023,261.7570585000067,261.7570585000067,262.2505044999998,262.2505044999998,262.2437484000111,up,262.2438082000008,262.2438297000044,None,0.41339940000034403,None,,,,,,,,,,,004,001,2026-01-21_16h49.36.689,NESC3137_EEG_experiment,,2025.1.1,130.58478478756987,2026-01-21 16h49.55.785297 -0400,
198,0,198,down,None,0.2791239000071073,0.12012799999502022,,,198,0,198,0,262.2505044999998,,,,,,,,,,,,,,,,,,,,262.2440428000118,262.2505044999998,263.1953559000103,263.1880269000103,2,263.1909844000038,263.1953559000103,263.1953559000103,263.68825040000957,263.68825040000957,263.6811705,down,263.68124550000357,263.68126690000645,None,0.2791239000071073,0.12012799999502022,,,,,,,,,,,004,001,2026-01-21_16h49.36.689,NESC3137_EEG_experiment,,2025.1.1,130.58478478756987,2026-01-21 16h49.55.785297 -0400,
199,0,199,down,None,0.39054330000362825,None,,,199,0,199,0,263.68825040000957,,,,,,,,,,,,,,,,,,,,263.6814658000076,263.68825040000957,264.50006580000627,264.49388350000663,2,264.496335600008,264.50006580000627,264.50006580000627,264.9937212000077,264.9937212000077,264.9871204000083,down,264.98718240000017,264.98721099999966,None,0.39054330000362825,None,,,,,,,,,,,004,001,2026-01-21_16h49.36.689,NESC3137_EEG_experiment,,2025.1.1,130.58478478756987,2026-01-21 16h49.55.785297 -0400,
200,0,200,up,space,0.2732555999973556,0.12805410000146367,3.925491100002546,None,200,0,200,0,264.9937212000077,,,,,,,,,,,,,,,,,,,,264.98741560000053,264.9937212000077,265.72923890000675,265.7231194000051,1,265.72540340000705,265.72923890000675,265.72923890000675,266.2226987000031,266.2226987000031,266.21624550000706,up,266.21630520001054,300.1448238000012,space,0.2732555999973556,0.12805410000146367,266.2226987000031,296.2132665000099,296.2132665000099,296.2132665000099,3.925491100002546,None,,,,,004,001,2026-01-21_16h49.36.689,NESC3137_EEG_experiment,,2025.1.1,130.58478478756987,2026-01-21 16h49.55.785297 -0400,
