thisN,thisTrialN,thisRepN,key_resp_3.keys,key_resp_3.rt,key_resp_3.duration,key_resp_4.keys,key_resp_4.rt,key_resp_4.duration,trials.thisRepN,trials.thisTrialN,trials.thisN,trials.thisIndex,thisRow.t,notes,lsl_stream.started,lsl_stream.stopped,setup.started,setup.stopped,welcome.started,welcomeimg.started,key_resp.started,welcome.stopped,key_resp.keys,key_resp.rt,key_resp.duration,instruction.started,instructionimg.started,key_resp_2.started,instruction.stopped,key_resp_2.keys,key_resp_2.rt,key_resp_2.duration,fixation.started,cross.started,cross.stopped,fixation.stopped,trigger,face.started,faceStim.started,key_resp_3.started,faceStim.stopped,key_resp_3.stopped,face.stopped,trials.key_resp_3.keys,trials.key_resp_3.rt,trials.key_resp_3.duration,break_2.started,break_2.stopped,trials.key_resp_4.keys,breakimg.started,breakimg.stopped,break2img.started,key_resp_4.started,trials.key_resp_4.rt,trials.key_resp_4.duration,end.started,finish.started,finish.stopped,end.stopped,participant,session,date,expName,expVersion,psychopyVersion,frameRate,expStart,
,,,,,,,,,,,,,,,0.010081499999614607,0.010166299999582407,,,,,,,,,,,,,,,,,,,,,,,,,,,,,,,,,,,,,,,,,,,,009,001,2026-01-28_16h46.59.885,NESC3137_EEG_experiment,,2025.1.1,144.99751329138323,2026-01-28 16h47.25.810031 -0400,
,,,,,,,,,,,,,,,,,0.01019670000005135,0.010231799999928626,,,,,,,,,,,,,,,,,,,,,,,,,,,,,,,,,,,,,,,,,,009,001,2026-01-28_16h46.59.885,NESC3137_EEG_experiment,,2025.1.1,144.99751329138323,2026-01-28 16h47.25.810031 -0400,
,,,,,,,,,,,,,,,,,,,0.010274100000060571,0.012442600000213133,0.012442600000213133,4.324891100000059,space,4.306692499999372,None,,,,,,,,,,,,,,,,,,,,,,,,,,,,,,,,,,,009,001,2026-01-28_16h46.59.885,NESC3137_EEG_experiment,,2025.1.1,144.99751329138323,2026-01-28 16h47.25.810031 -0400,
,,,,,,,,,,,,,,,,,,,,,,,,,,4.3249234000004435,4.328933800000414,4.328933800000414,8.947519399999692,space,4.614042600000175,None,,,,,,,,,,,,,,,,,,,,,,,,,,,,009,001,2026-01-28_16h46.59.885,NESC3137_EEG_experiment,,2025.1.1,144.99751329138323,2026-01-28 16h47.25.810031 -0400,
0,0,0,down,0.45185720000063156,None,None,,,0,0,0,0,8.954679800000122,,,,,,,,,,,,,,,,,,,,8.948887200000172,8.954679800000122,9.635139699999854,9.627645700000357,2,9.629358700000012,9.635139699999854,9.635139699999854,10.127698100000089,10.127698100000089,10.12092339999981,down,0.45185720000063156,None,10.120964300000196,10.12098109999988,None,,,,,,,,,,,009,001,2026-01-28_16h46.59.885,NESC3137_EEG_experiment,,2025.1.1,144.99751329138323,2026-01-28 16h47.25.810031 -0400,
1,0,1,up,0.4015679000003729,None,None,,,1,0,1,0,10.127698100000089,,,,,,,,,,,,,,,,,,,,10.121080799999618,10.127698100000089,10.829483800000162,10.822353399999884,1,10.824365999999827,10.829483800000162,10.829483800000162,11.322704199999862,11.322704199999862,11.315632200000437,up,0.4015679000003729,None,11.315686599999935,11.315717399999812,None,,,,,,,,,,,009,001,2026-01-28_16h46.59.885,NESC3137_EEG_experiment,,2025.1.1,144.99751329138323,2026-01-28 16h47.25.810031 -0400,
2,0,2,down,0.4070087000000058,None,None,,,2,0,2,0,11.322704199999862,,,,,,,,,,,,,,,,,,,,11.315884300000107,11.322704199999862,12.232062500000211,12.226742900000318,2,12.22869559999981,12.232062500000211,12.232062500000211,12.72518620000028,12.72518620000028,12.720164299999851,down,0.4070087000000058,None,12.720204199999898,12.720221100000344,None,,,,,,,,,,,009,001,2026-01-28_16h46.59.885,NESC3137_EEG_experiment,,2025.1.1,144.99751329138323,2026-01-28 16h47.25.810031 -0400,
3,0,3,up,0.35858379999990575,0.10399109999980283,None,,,3,0,3,0,12.72518620000028,,,,,,,,,,,,,,,,,,,,12.720362799999748,12.72518620000028,13.600408100000095,13.59397059999992,1,13.595854700000018,13.600408100000095,13.600408100000095,14.093301199999587,14.093301199999587,14.087024800000108,up,0.35858379999990575,0.10399109999980283,14.087072299999818,14.087088500000391,None,,,,,,,,,,,009,001,2026-01-28_16h46.59.885,NESC3137_EEG_experiment,,2025.1.1,144.99751329138323,2026-01-28 16h47.25.810031 -0400,
4,0,4,up,0.3317349999997532,0.11212370000066585,None,,,4,0,4,0,14.093301199999587,,,,,,,,,,,,,,,,,,,,14.087212800000088,14.093301199999587,15.059531799999604,15.052110900000116,1,15.053738300000077,15.059531799999604,15.059531799999604,15.551927999999862,15.551927999999862,15.545139200000449,up,0.3317349999997532,0.11212370000066585,15.545191000000159,15.545218700000078,None,,,,,,,,,,,009,001,2026-01-28_16h46.59.885,NESC3137_EEG_experiment,,2025.1.1,144.99751329138323,2026-01-28 16h47.25.810031 -0400,
5,0,5,down,0.4605559000001449,None,None,,,5,0,5,0,15.551927999999862,,,,,,,,,,,,,,,,,,,,15.545377700000245,15.551927999999862,16.074448700000175,16.066079799999898,2,16.067570199999864,16.074448700000175,16.074448700000175,16.56604890000017,16.56604890000017,16.55907219999972,down,0.4605559000001449,None,16.559113299999808,16.559128099999725,None,,,,,,,,,,,009,001,2026-01-28_16h46.59.885,NESC3137_EEG_experiment,,2025.1.1,144.99751329138323,2026-01-28 16h47.25.810031 -0400,
6,0,6,up,0.3818826999995508,None,None,,,6,0,6,0,16.56604890000017,,,,,,,,,,,,,,,,,,,,16.559231700000055,16.56604890000017,17.337034600000152,17.330739099999846,1,17.33244250000007,17.337034600000152,17.337034600000152,17.831298899999638,17.831298899999638,17.82314849999966,up,0.3818826999995508,None,17.82318430000032,17.823198299999603,None,,,,,,,,,,,009,001,2026-01-28_16h46.59.885,NESC3137_EEG_experiment,,2025.1.1,144.99751329138323,2026-01-28 16h47.25.810031 -0400,
7,0,7,down,0.4720116999997117,None,None,,,7,0,7,0,17.831298899999638,,,,,,,,,,,,,,,,,,,,17.823306799999955,17.831298899999638,18.71901009999965,18.712114199999633,2,18.71420610000041,18.71901009999965,18.71901009999965,19.212411399999837,19.212411399999837,19.205403199999637,down,0.4720116999997117,None,19.205454199999622,19.205482700000175,None,,,,,,,,,,,009,001,2026-01-28_16h46.59.885,NESC3137_EEG_experiment,,2025.1.1,144.99751329138323,2026-01-28 16h47.25.810031 -0400,
8,0,8,None,,,None,,,8,0,8,0,19.212411399999837,,,,,,,,,,,,,,,,,,,,19.20563510000011,19.212411399999837,19.809737900000073,19.802459499999713,1,19.80406959999982,19.809737900000073,19.809737900000073,20.30383569999958,20.30383569999958,20.296176200000446,None,,,20.29620580000028,20.296221399999922,None,,,,,,,,,,,009,001,2026-01-28_16h46.59.885,NESC3137_EEG_experiment,,2025.1.1,144.99751329138323,2026-01-28 16h47.25.810031 -0400,
9,0,9,None,,,None,,,9,0,9,0,20.30383569999958,,,,,,,,,,,,,,,,,,,,20.296314500000335,20.30383569999958,21.039561100000356,21.03194050000002,2,21.03362930000003,21.039561100000356,21.039561100000356,21.532497899999726,21.532497899999726,21.525497200000245,None,,,21.525528799999847,21.525544199999786,None,,,,,,,,,,,009,001,2026-01-28_16h46.59.885,NESC3137_EEG_experiment,,2025.1.1,144.99751329138323,2026-01-28 16h47.25.810031 -0400,
10,0,10,down,0.45926520000011806,None,None,,,10,0,10,0,21.532497899999726,,,,,,,,,,,,,,,,,,,,21.52565659999982,21.532497899999726,22.059687900000426,22.052938300000278,2,22.055198299999574,22.059687900000426,22.059687900000426,22.552753400000256,22.552753400000256,22.545978400000422,down,0.45926520000011806,None,22.5460307000003,22.546058199999607,None,,,,,,,,,,,009,001,2026-01-28_16h46.59.885,NESC3137_EEG_experiment,,2025.1.1,144.99751329138323,2026-01-28 16h47.25.810031 -0400,
11,0,11,up,0.4189785999997184,None,None,,,11,0,11,0,22.552753400000256,,,,,,,,,,,,,,,,,,,,22.546212500000365,22.552753400000256,23.42797690000043,23.421084300000075,1,23.4227963000003,23.42797690000043,23.42797690000043,23.92121599999973,23.92121599999973,23.915172600000005,up,0.4189785999997184,None,23.915210000000116,23.915224999999737,None,,,,,,,,,,,009,001,2026-01-28_16h46.59.885,NESC3137_EEG_experiment,,2025.1.1,144.99751329138323,2026-01-28 16h47.25.810031 -0400,
12,0,12,down,0.450387399999272,None,None,,,12,0,12,0,23.92121599999973,,,,,,,,,,,,,,,,,,,,23.9153981999998,23.92121599999973,24.68512129999999,24.67800199999965,2,24.67992630000026,24.68512129999999,24.68512129999999,25.17931950000002,25.17931950000002,25.171291999999994,down,0.450387399999272,None,25.171326900000167,25.171342399999958,None,,,,,,,,,,,009,001,2026-01-28_16h46.59.885,NESC3137_EEG_experiment,,2025.1.1,144.99751329138323,2026-01-28 16h47.25.810031 -0400,
13,0,13,up,0.46033799999986513,None,None,,,13,0,13,0,25.17931950000002,,,,,,,,,,,,,,,,,,,,25.171445199999653,25.17931950000002,25.754702199999883,25.748173699999825,1,25.75009190000037,25.754702199999883,25.754702199999883,26.24755710000045,26.24755710000045,26.24297899999965,up,0.46033799999986513,None,26.243046700000377,26.243068900000253,None,,,,,,,,,,,009,001,2026-01-28_16h46.59.885,NESC3137_EEG_experiment,,2025.1.1,144.99751329138323,2026-01-28 16h47.25.810031 -0400,
14,0,14,up,0.3883703000001333,None,None,,,14,0,14,0,26.24755710000045,,,,,,,,,,,,,,,,,,,,26.243228000000272,26.24755710000045,27.01867570000013,27.01200020000033,1,27.014014999999745,27.01867570000013,27.01867570000013,27.5118779000004,27.5118779000004,27.506430100000216,up,0.3883703000001333,None,27.506527300000016,27.506569899999704,None,,,,,,,,,,,009,001,2026-01-28_16h46.59.885,NESC3137_EEG_experiment,,2025.1.1,144.99751329138323,2026-01-28 16h47.25.810031 -0400,
15,0,15,down,0.4073717999999644,None,None,,,15,0,15,0,27.5118779000004,,,,,,,,,,,,,,,,,,,,27.50689340000008,27.5118779000004,28.199631899999986,28.19265710000036,2,28.194394000000102,28.199631899999986,28.199631899999986,28.692335099999582,28.692335099999582,28.686927900000228,down,0.4073717999999644,None,28.686965699999746,28.686981200000446,None,,,,,,,,,,,009,001,2026-01-28_16h46.59.885,NESC3137_EEG_experiment,,2025.1.1,144.99751329138323,2026-01-28 16h47.25.810031 -0400,
16,0,16,down,0.3919167000003654,None,None,,,16,0,16,0,28.692335099999582,,,,,,,,,,,,,,,,,,,,28.687149299999874,28.692335099999582,29.20712730000014,29.200253599999996,2,29.20219900000029,29.20712730000014,29.20712730000014,29.699473599999692,29.699473599999692,29.692692700000407,down,0.3919167000003654,None,29.69273140000041,29.69275099999959,None,,,,,,,,,,,009,001,2026-01-28_16h46.59.885,NESC3137_EEG_experiment,,2025.1.1,144.99751329138323,2026-01-28 16h47.25.810031 -0400,
17,0,17,up,0.38240380000024743,None,None,,,17,0,17,0,29.699473599999692,,,,,,,,,,,,,,,,,,,,29.69285839999975,29.699473599999692,30.24855269999989,30.241328299999623,1,30.24294009999994,30.24855269999989,30.24855269999989,30.742265900000348,30.742265900000348,30.734744399999727,up,0.38240380000024743,None,30.734784500000387,30.734799799999564,None,,,,,,,,,,,009,001,2026-01-28_16h46.59.885,NESC3137_EEG_experiment,,2025.1.1,144.99751329138323,2026-01-28 16h47.25.810031 -0400,
18,0,18,up,0.35940019999998185,0.11233499999980268,None,,,18,0,18,0,30.742265900000348,,,,,,,,,,,,,,,,,,,,30.73490419999962,30.742265900000348,31.679683000000296,31.6732764999997,1,31.67505110000002,31.679683000000296,31.679683000000296,32.172110800000155,32.172110800000155,32.165333900000405,up,0.35940019999998185,0.11233499999980268,32.16538440000022,32.16541070000039,None,,,,,,,,,,,009,001,2026-01-28_16h46.59.885,NESC3137_EEG_experiment,,2025.1.1,144.99751329138323,2026-01-28 16h47.25.810031 -0400,
19,0,19,down,0.4223427000006268,None,None,,,19,0,19,0,32.172110800000155,,,,,,,,,,,,,,,,,,,,32.16556440000022,32.172110800000155,32.77662650000002,32.76959799999986,2,32.77133959999992,32.77662650000002,32.77662650000002,33.269771899999796,33.269771899999796,33.26260889999958,down,0.4223427000006268,None,33.262647800000195,33.26266229999965,None,,,,,,,,,,,009,001,2026-01-28_16h46.59.885,NESC3137_EEG_experiment,,2025.1.1,144.99751329138323,2026-01-28 16h47.25.810031 -0400,
20,0,20,down,0.4049927000005482,None,None,,,20,0,20,0,33.269771899999796,,,,,,,,,,,,,,,,,,,,33.26276280000002,33.269771899999796,34.241997699999956,34.23581759999979,2,34.23765120000007,34.241997699999956,34.241997699999956,34.735095199999705,34.735095199999705,34.72846449999997,down,0.4049927000005482,None,34.72851879999962,34.728537199999664,None,,,,,,,,,,,009,001,2026-01-28_16h46.59.885,NESC3137_EEG_experiment,,2025.1.1,144.99751329138323,2026-01-28 16h47.25.810031 -0400,
21,0,21,up,0.44352989999970305,None,None,,,21,0,21,0,34.735095199999705,,,,,,,,,,,,,,,,,,,,34.728685199999745,34.735095199999705,35.659444099999746,35.65278969999963,1,35.65453450000041,35.659444099999746,35.659444099999746,36.15187470000001,36.15187470000001,36.146186099999795,up,0.44352989999970305,None,36.14622419999978,36.146241600000394,None,,,,,,,,,,,009,001,2026-01-28_16h46.59.885,NESC3137_EEG_experiment,,2025.1.1,144.99751329138323,2026-01-28 16h47.25.810031 -0400,
22,0,22,up,0.4050738000005367,None,None,,,22,0,22,0,36.15187470000001,,,,,,,,,,,,,,,,,,,,36.146359200000006,36.15187470000001,36.88990360000025,36.88198209999973,1,36.88373769999998,36.88990360000025,36.88990360000025,37.3811668999997,37.3811668999997,37.374554899999566,up,0.4050738000005367,None,37.37460749999991,37.374634400000105,None,,,,,,,,,,,009,001,2026-01-28_16h46.59.885,NESC3137_EEG_experiment,,2025.1.1,144.99751329138323,2026-01-28 16h47.25.810031 -0400,
23,0,23,down,0.4151858999994147,None,None,,,23,0,23,0,37.3811668999997,,,,,,,,,,,,,,,,,,,,37.37479239999993,37.3811668999997,37.943839800000205,37.93688889999976,2,37.938650699999926,37.943839800000205,37.943839800000205,38.436678899999606,38.436678899999606,38.4300688000003,down,0.4151858999994147,None,38.43010419999973,38.43011920000026,None,,,,,,,,,,,009,001,2026-01-28_16h46.59.885,NESC3137_EEG_experiment,,2025.1.1,144.99751329138323,2026-01-28 16h47.25.810031 -0400,
24,0,24,down,0.4545533999998952,None,None,,,24,0,24,0,38.436678899999606,,,,,,,,,,,,,,,,,,,,38.43022810000002,38.436678899999606,38.94442489999983,38.93811100000039,2,38.940070200000264,38.94442489999983,38.94442489999983,39.43774800000028,39.43774800000028,39.43057119999958,down,0.4545533999998952,None,39.43060969999988,39.43062430000009,None,,,,,,,,,,,009,001,2026-01-28_16h46.59.885,NESC3137_EEG_experiment,,2025.1.1,144.99751329138323,2026-01-28 16h47.25.810031 -0400,
25,0,25,down,0.42679580000003625,None,None,,,25,0,25,0,39.43774800000028,,,,,,,,,,,,,,,,,,,,39.430753800000275,39.43774800000028,40.07619950000026,40.069178900000225,2,40.07130320000033,40.07619950000026,40.07619950000026,40.56900140000016,40.56900140000016,40.56289310000011,down,0.42679580000003625,None,40.562933399999565,40.56294960000014,None,,,,,,,,,,,009,001,2026-01-28_16h46.59.885,NESC3137_EEG_experiment,,2025.1.1,144.99751329138323,2026-01-28 16h47.25.810031 -0400,
26,0,26,down,0.4050527000008515,None,None,,,26,0,26,0,40.56900140000016,,,,,,,,,,,,,,,,,,,,40.56306609999956,40.56900140000016,41.35392059999958,41.34721939999963,2,41.34871899999962,41.35392059999958,41.35392059999958,41.84833379999964,41.84833379999964,41.84016419999989,down,0.4050527000008515,None,41.84021539999958,41.84024520000003,None,,,,,,,,,,,009,001,2026-01-28_16h46.59.885,NESC3137_EEG_experiment,,2025.1.1,144.99751329138323,2026-01-28 16h47.25.810031 -0400,
27,0,27,up,0.41131590000077267,None,None,,,27,0,27,0,41.84833379999964,,,,,,,,,,,,,,,,,,,,41.84040730000015,41.84833379999964,42.45166760000029,42.44429409999975,1,42.445913100000325,42.45166760000029,42.45166760000029,42.94589780000024,42.94589780000024,42.93738899999971,up,0.41131590000077267,None,42.93742939999993,42.93744450000031,None,,,,,,,,,,,009,001,2026-01-28_16h46.59.885,NESC3137_EEG_experiment,,2025.1.1,144.99751329138323,2026-01-28 16h47.25.810031 -0400,
28,0,28,up,0.40587820000018837,None,None,,,28,0,28,0,42.94589780000024,,,,,,,,,,,,,,,,,,,,42.937542399999984,42.94589780000024,43.88907680000011,43.88226790000044,1,43.88406060000034,43.88907680000011,43.88907680000011,44.382195899999715,44.382195899999715,44.376573599999574,up,0.40587820000018837,None,44.376626000000215,44.37665029999971,None,,,,,,,,,,,009,001,2026-01-28_16h46.59.885,NESC3137_EEG_experiment,,2025.1.1,144.99751329138323,2026-01-28 16h47.25.810031 -0400,
29,0,29,up,0.39911819999997533,None,None,,,29,0,29,0,44.382195899999715,,,,,,,,,,,,,,,,,,,,44.37680100000034,44.382195899999715,45.007902000000286,45.00177890000032,1,45.00386669999989,45.007902000000286,45.007902000000286,45.50009969999974,45.50009969999974,45.493353599999864,up,0.39911819999997533,None,45.493397500000356,45.49341209999966,None,,,,,,,,,,,009,001,2026-01-28_16h46.59.885,NESC3137_EEG_experiment,,2025.1.1,144.99751329138323,2026-01-28 16h47.25.810031 -0400,
30,0,30,down,0.3741929000007076,None,None,,,30,0,30,0,45.50009969999974,,,,,,,,,,,,,,,,,,,,45.493511699999544,45.50009969999974,46.320814200000314,46.312788700000056,2,46.31440879999991,46.320814200000314,46.320814200000314,46.8138571999998,46.8138571999998,46.80729499999961,down,0.3741929000007076,None,46.80733169999985,46.80734790000042,None,,,,,,,,,,,009,001,2026-01-28_16h46.59.885,NESC3137_EEG_experiment,,2025.1.1,144.99751329138323,2026-01-28 16h47.25.810031 -0400,
31,0,31,up,0.37337879999995494,None,None,,,31,0,31,0,46.8138571999998,,,,,,,,,,,,,,,,,,,,46.80745719999959,46.8138571999998,47.47366200000033,47.466582899999594,1,47.46821170000021,47.47366200000033,47.47366200000033,47.96607789999962,47.96607789999962,47.96052580000014,up,0.37337879999995494,None,47.96057800000017,47.960597500000404,None,,,,,,,,,,,009,001,2026-01-28_16h46.59.885,NESC3137_EEG_experiment,,2025.1.1,144.99751329138323,2026-01-28 16h47.25.810031 -0400,
32,0,32,up,0.37171369999941817,None,None,,,32,0,32,0,47.96607789999962,,,,,,,,,,,,,,,,,,,,47.96070200000031,47.96607789999962,48.62705670000014,48.61920089999967,1,48.62094700000034,48.62705670000014,48.62705670000014,49.11969279999994,49.11969279999994,49.111974700000246,up,0.37171369999941817,None,49.11202659999981,49.11205429999973,None,,,,,,,,,,,009,001,2026-01-28_16h46.59.885,NESC3137_EEG_experiment,,2025.1.1,144.99751329138323,2026-01-28 16h47.25.810031 -0400,
33,0,33,up,0.3936844999998357,None,None,,,33,0,33,0,49.11969279999994,,,,,,,,,,,,,,,,,,,,49.11221310000019,49.11969279999994,49.813295500000095,49.80638960000033,1,49.80864070000007,49.813295500000095,49.813295500000095,50.30632559999958,50.30632559999958,50.30003070000021,up,0.3936844999998357,None,50.30006570000023,50.30008739999994,None,,,,,,,,,,,009,001,2026-01-28_16h46.59.885,NESC3137_EEG_experiment,,2025.1.1,144.99751329138323,2026-01-28 16h47.25.810031 -0400,
34,0,34,down,0.4760662999997294,None,None,,,34,0,34,0,50.30632559999958,,,,,,,,,,,,,,,,,,,,50.300227099999574,50.30632559999958,50.88293059999978,50.8763927,2,50.87831730000016,50.88293059999978,50.88293059999978,51.375981299999694,51.375981299999694,51.36929119999968,down,0.4760662999997294,None,51.36934259999998,51.36936869999954,None,,,,,,,,,,,009,001,2026-01-28_16h46.59.885,NESC3137_EEG_experiment,,2025.1.1,144.99751329138323,2026-01-28 16h47.25.810031 -0400,
35,0,35,down,0.3732762999998158,None,None,,,35,0,35,0,51.375981299999694,,,,,,,,,,,,,,,,,,,,51.36946420000004,51.375981299999694,52.05773669999962,52.04967300000044,2,52.05122459999984,52.05773669999962,52.05773669999962,52.55070169999999,52.55070169999999,52.543553800000154,down,0.3732762999998158,None,52.5435980000002,52.5436123999998,None,,,,,,,,,,,009,001,2026-01-28_16h46.59.885,NESC3137_EEG_experiment,,2025.1.1,144.99751329138323,2026-01-28 16h47.25.810031 -0400,
36,0,36,down,0.36237270000037825,None,None,,,36,0,36,0,52.55070169999999,,,,,,,,,,,,,,,,,,,,52.54371199999969,52.55070169999999,53.452626899999814,53.445663200000126,2,53.447394099999656,53.452626899999814,53.452626899999814,53.94557050000003,53.94557050000003,53.93911560000015,down,0.36237270000037825,None,53.93917129999954,53.939201299999695,None,,,,,,,,,,,009,001,2026-01-28_16h46.59.885,NESC3137_EEG_experiment,,2025.1.1,144.99751329138323,2026-01-28 16h47.25.810031 -0400,
37,0,37,up,0.3809322000006432,None,None,,,37,0,37,0,53.94557050000003,,,,,,,,,,,,,,,,,,,,53.93935640000018,53.94557050000003,54.84207309999965,54.83505239999977,1,54.83712939999987,54.84207309999965,54.84207309999965,55.33572850000019,55.33572850000019,55.32813230000011,up,0.3809322000006432,None,55.328167499999836,55.32818339999994,None,,,,,,,,,,,009,001,2026-01-28_16h46.59.885,NESC3137_EEG_experiment,,2025.1.1,144.99751329138323,2026-01-28 16h47.25.810031 -0400,
38,0,38,None,,,None,,,38,0,38,0,55.33572850000019,,,,,,,,,,,,,,,,,,,,55.328286500000104,55.33572850000019,55.91155030000027,55.90433070000017,2,55.90618859999995,55.91155030000027,55.91155030000027,56.40441850000025,56.40441850000025,56.39773779999996,None,,,56.3977917000002,56.39782170000035,None,,,,,,,,,,,009,001,2026-01-28_16h46.59.885,NESC3137_EEG_experiment,,2025.1.1,144.99751329138323,2026-01-28 16h47.25.810031 -0400,
39,0,39,up,0.43935440000041126,None,None,,,39,0,39,0,56.40441850000025,,,,,,,,,,,,,,,,,,,,56.39797879999969,56.40441850000025,57.12006550000024,57.11452790000021,1,57.116424499999994,57.12006550000024,57.12006550000024,57.6129848999999,57.6129848999999,57.60709880000013,up,0.43935440000041126,None,57.60714139999982,57.60715770000024,None,,,,,,,,,,,009,001,2026-01-28_16h46.59.885,NESC3137_EEG_experiment,,2025.1.1,144.99751329138323,2026-01-28 16h47.25.810031 -0400,
40,0,40,down,0.355990600000041,0.09603519999927812,None,,,40,0,40,0,57.6129848999999,,,,,,,,,,,,,,,,,,,,57.60726100000011,57.6129848999999,58.322938799999974,58.315120399999614,2,58.31667589999961,58.322938799999974,58.322938799999974,58.81485570000041,58.81485570000041,58.80744909999976,down,0.355990600000041,0.09603519999927812,58.80749070000002,58.807505499999934,None,,,,,,,,,,,009,001,2026-01-28_16h46.59.885,NESC3137_EEG_experiment,,2025.1.1,144.99751329138323,2026-01-28 16h47.25.810031 -0400,
41,0,41,up,0.37048389999927167,0.1039360000004308,None,,,41,0,41,0,58.81485570000041,,,,,,,,,,,,,,,,,,,,58.807605899999544,58.81485570000041,59.56456679999974,59.5580686000003,1,59.55983879999985,59.56456679999974,59.56456679999974,60.05769580000015,60.05769580000015,60.05077450000044,up,0.37048389999927167,0.1039360000004308,60.0508262000003,60.05086180000035,None,,,,,,,,,,,009,001,2026-01-28_16h46.59.885,NESC3137_EEG_experiment,,2025.1.1,144.99751329138323,2026-01-28 16h47.25.810031 -0400,
42,0,42,up,0.4174960000000283,None,None,,,42,0,42,0,60.05769580000015,,,,,,,,,,,,,,,,,,,,60.0510691999998,60.05769580000015,60.6620783999997,60.655032100000426,1,60.656817400000364,60.6620783999997,60.6620783999997,61.154938100000436,61.154938100000436,61.1489330000004,up,0.4174960000000283,None,61.148997999999665,61.14902439999969,None,,,,,,,,,,,009,001,2026-01-28_16h46.59.885,NESC3137_EEG_experiment,,2025.1.1,144.99751329138323,2026-01-28 16h47.25.810031 -0400,
43,0,43,up,0.46733709999989514,None,None,,,43,0,43,0,61.154938100000436,,,,,,,,,,,,,,,,,,,,61.149179099999856,61.154938100000436,61.995663499999864,61.98931999999968,1,61.991442700000334,61.995663499999864,61.995663499999864,62.48884350000026,62.48884350000026,62.48220880000008,up,0.46733709999989514,None,62.482253299999684,62.482268800000384,None,,,,,,,,,,,009,001,2026-01-28_16h46.59.885,NESC3137_EEG_experiment,,2025.1.1,144.99751329138323,2026-01-28 16h47.25.810031 -0400,
44,0,44,up,0.45706460000019433,None,None,,,44,0,44,0,62.48884350000026,,,,,,,,,,,,,,,,,,,,62.48237439999957,62.48884350000026,62.98203079999985,62.97465360000024,1,62.9766195000002,62.98203079999985,62.98203079999985,63.474747500000376,63.474747500000376,63.46997079999983,up,0.45706460000019433,None,63.47011259999999,63.47013220000008,None,,,,,,,,,,,009,001,2026-01-28_16h46.59.885,NESC3137_EEG_experiment,,2025.1.1,144.99751329138323,2026-01-28 16h47.25.810031 -0400,
45,0,45,down,0.4301889999997002,None,None,,,45,0,45,0,63.474747500000376,,,,,,,,,,,,,,,,,,,,63.4702871999998,63.474747500000376,64.22483360000024,64.2184900000002,2,64.22048919999997,64.22483360000024,64.22483360000024,64.71913390000009,64.71913390000009,64.71127220000017,down,0.4301889999997002,None,64.7113075999996,64.71132250000028,None,,,,,,,,,,,009,001,2026-01-28_16h46.59.885,NESC3137_EEG_experiment,,2025.1.1,144.99751329138323,2026-01-28 16h47.25.810031 -0400,
46,0,46,down,0.4048067000003357,None,None,,,46,0,46,0,64.71913390000009,,,,,,,,,,,,,,,,,,,,64.71142340000006,64.71913390000009,65.58614949999992,65.57942679999996,2,65.5813433000003,65.58614949999992,65.58614949999992,66.07932549999987,66.07932549999987,66.07227309999962,down,0.4048067000003357,None,66.07231070000034,66.07232750000003,None,,,,,,,,,,,009,001,2026-01-28_16h46.59.885,NESC3137_EEG_experiment,,2025.1.1,144.99751329138323,2026-01-28 16h47.25.810031 -0400,
47,0,47,down,0.39683850000074017,None,None,,,47,0,47,0,66.07932549999987,,,,,,,,,,,,,,,,,,,,66.07242690000021,66.07932549999987,66.64212860000043,66.63550980000036,2,66.63742209999964,66.64212860000043,66.64212860000043,67.13482899999963,67.13482899999963,67.1291282000002,down,0.39683850000074017,None,67.12916849999965,67.1291841000002,None,,,,,,,,,,,009,001,2026-01-28_16h46.59.885,NESC3137_EEG_experiment,,2025.1.1,144.99751329138323,2026-01-28 16h47.25.810031 -0400,
48,0,48,down,0.35996889999933046,None,None,,,48,0,48,0,67.13482899999963,,,,,,,,,,,,,,,,,,,,67.12933679999969,67.13482899999963,67.76705599999968,67.7616951,2,67.7635381,67.76705599999968,67.76705599999968,68.25997740000003,68.25997740000003,68.25335809999979,down,0.35996889999933046,None,68.25341540000045,68.25344450000011,None,,,,,,,,,,,009,001,2026-01-28_16h46.59.885,NESC3137_EEG_experiment,,2025.1.1,144.99751329138323,2026-01-28 16h47.25.810031 -0400,
49,0,49,up,0.32331710000016756,0.1280335000001287,None,,,49,0,49,0,68.25997740000003,,,,,,,,,,,,,,,,,,,,68.25359910000043,68.25997740000003,68.94770710000012,68.94089900000017,1,68.9426553000003,68.94770710000012,68.94770710000012,69.44083500000033,69.44083500000033,69.43421519999993,up,0.32331710000016756,0.1280335000001287,69.43426819999968,69.43429469999955,None,,,,,,,,,,,009,001,2026-01-28_16h46.59.885,NESC3137_EEG_experiment,,2025.1.1,144.99751329138323,2026-01-28 16h47.25.810031 -0400,
50,0,50,down,0.33885779999945953,None,None,,,50,0,50,0,69.44083500000033,,,,,,,,,,,,,,,,,,,,69.43446210000002,69.44083500000033,70.26815840000017,70.26068029999988,2,70.2624093000004,70.26815840000017,70.26815840000017,70.76044499999989,70.76044499999989,70.75359930000013,down,0.33885779999945953,None,70.75365249999959,70.75368020000042,None,,,,,,,,,,,009,001,2026-01-28_16h46.59.885,NESC3137_EEG_experiment,,2025.1.1,144.99751329138323,2026-01-28 16h47.25.810031 -0400,
51,0,51,up,0.46742820000054053,None,None,,,51,0,51,0,70.76044499999989,,,,,,,,,,,,,,,,,,,,70.7538470999998,70.76044499999989,71.26754009999968,71.2607624000002,1,71.26260879999973,71.26754009999968,71.26754009999968,71.76040459999967,71.76040459999967,71.75383349999993,up,0.46742820000054053,None,71.75388699999985,71.75391589999981,None,,,,,,,,,,,009,001,2026-01-28_16h46.59.885,NESC3137_EEG_experiment,,2025.1.1,144.99751329138323,2026-01-28 16h47.25.810031 -0400,
52,0,52,down,0.3887442999994164,None,None,,,52,0,52,0,71.76040459999967,,,,,,,,,,,,,,,,,,,,71.7540710000003,71.76040459999967,72.69872250000026,72.69211410000025,2,72.69379130000016,72.69872250000026,72.69872250000026,73.19166810000024,73.19166810000024,73.1845199999998,down,0.3887442999994164,None,73.18455730000005,73.18457169999965,None,,,,,,,,,,,009,001,2026-01-28_16h46.59.885,NESC3137_EEG_experiment,,2025.1.1,144.99751329138323,2026-01-28 16h47.25.810031 -0400,
53,0,53,down,0.40137979999963136,None,None,,,53,0,53,0,73.19166810000024,,,,,,,,,,,,,,,,,,,,73.1846813000002,73.19166810000024,74.15758759999972,74.1502432999996,2,74.1519629000004,74.15758759999972,74.15758759999972,74.64989010000045,74.64989010000045,74.64300220000041,down,0.40137979999963136,None,74.64306190000025,74.64308880000044,None,,,,,,,,,,,009,001,2026-01-28_16h46.59.885,NESC3137_EEG_experiment,,2025.1.1,144.99751329138323,2026-01-28 16h47.25.810031 -0400,
54,0,54,up,0.4476759999997739,None,None,,,54,0,54,0,74.64989010000045,,,,,,,,,,,,,,,,,,,,74.64324190000025,74.64989010000045,75.57533419999982,75.56670099999974,1,75.56836289999956,75.57533419999982,75.57533419999982,76.06768209999973,76.06768209999973,76.06062230000043,up,0.4476759999997739,None,76.06065889999991,76.0606743999997,None,,,,,,,,,,,009,001,2026-01-28_16h46.59.885,NESC3137_EEG_experiment,,2025.1.1,144.99751329138323,2026-01-28 16h47.25.810031 -0400,
55,0,55,up,0.4785284999998112,None,None,,,55,0,55,0,76.06768209999973,,,,,,,,,,,,,,,,,,,,76.06079709999995,76.06768209999973,76.71258639999996,76.70653419999962,1,76.70940260000043,76.71258639999996,76.71258639999996,77.20548710000003,77.20548710000003,77.19900039999993,up,0.4785284999998112,None,77.19905480000034,77.19908159999977,None,,,,,,,,,,,009,001,2026-01-28_16h46.59.885,NESC3137_EEG_experiment,,2025.1.1,144.99751329138323,2026-01-28 16h47.25.810031 -0400,
56,0,56,up,0.4087987000002613,None,None,,,56,0,56,0,77.20548710000003,,,,,,,,,,,,,,,,,,,,77.19924189999983,77.20548710000003,77.94220039999982,77.93539189999956,1,77.93789240000024,77.94220039999982,77.94220039999982,78.43508509999992,78.43508509999992,78.42890400000033,up,0.4087987000002613,None,78.42894309999974,78.42895839999983,None,,,,,,,,,,,009,001,2026-01-28_16h46.59.885,NESC3137_EEG_experiment,,2025.1.1,144.99751329138323,2026-01-28 16h47.25.810031 -0400,
57,0,57,up,0.41081990000020596,None,None,,,57,0,57,0,78.43508509999992,,,,,,,,,,,,,,,,,,,,78.42906149999999,78.43508509999992,78.95614459999979,78.95039259999976,1,78.95205689999966,78.95614459999979,78.95614459999979,79.44996309999988,79.44996309999988,79.44276629999968,up,0.41081990000020596,None,79.44280619999972,79.44282420000036,None,,,,,,,,,,,009,001,2026-01-28_16h46.59.885,NESC3137_EEG_experiment,,2025.1.1,144.99751329138323,2026-01-28 16h47.25.810031 -0400,
58,0,58,up,0.43104700000003504,None,None,,,58,0,58,0,79.44996309999988,,,,,,,,,,,,,,,,,,,,79.44297629999983,79.44996309999988,80.03989629999978,80.03292989999954,1,80.03477529999964,80.03989629999978,80.03989629999978,80.53243759999987,80.53243759999987,80.5258918999998,up,0.43104700000003504,None,80.52592790000017,80.52594349999981,None,,,,,,,,,,,009,001,2026-01-28_16h46.59.885,NESC3137_EEG_experiment,,2025.1.1,144.99751329138323,2026-01-28 16h47.25.810031 -0400,
59,0,59,up,0.4424133000002257,None,None,,,59,0,59,0,80.53243759999987,,,,,,,,,,,,,,,,,,,,80.52604809999957,80.53243759999987,81.22058670000024,81.21275260000039,1,81.21446449999985,81.22058670000024,81.22058670000024,81.71272760000011,81.71272760000011,81.70617299999958,up,0.4424133000002257,None,81.70622490000005,81.70625199999995,None,,,,,,,,,,,009,001,2026-01-28_16h46.59.885,NESC3137_EEG_experiment,,2025.1.1,144.99751329138323,2026-01-28 16h47.25.810031 -0400,
60,0,60,up,0.39131909999923664,None,None,,,60,0,60,0,81.71272760000011,,,,,,,,,,,,,,,,,,,,81.70641450000039,81.71272760000011,82.57570159999977,82.5671124999999,1,82.56890199999998,82.57570159999977,82.57570159999977,83.06801509999968,83.06801509999968,83.06042129999969,up,0.39131909999923664,None,83.06047430000035,83.0605029999997,None,,,,,,,,,,,009,001,2026-01-28_16h46.59.885,NESC3137_EEG_experiment,,2025.1.1,144.99751329138323,2026-01-28 16h47.25.810031 -0400,
61,0,61,down,0.3988760000002003,None,None,,,61,0,61,0,83.06801509999968,,,,,,,,,,,,,,,,,,,,83.06066159999955,83.06801509999968,83.82441110000036,83.81748309999966,2,83.8193282000002,83.82441110000036,83.82441110000036,84.31750430000011,84.31750430000011,84.31056999999964,down,0.3988760000002003,None,84.31062060000022,84.31064789999982,None,,,,,,,,,,,009,001,2026-01-28_16h46.59.885,NESC3137_EEG_experiment,,2025.1.1,144.99751329138323,2026-01-28 16h47.25.810031 -0400,
62,0,62,up,0.41674699999930453,None,None,,,62,0,62,0,84.31750430000011,,,,,,,,,,,,,,,,,,,,84.31080039999961,84.31750430000011,85.00621179999962,84.9984330999996,1,85.00018689999979,85.00621179999962,85.00621179999962,85.4981528999997,85.4981528999997,85.49189639999986,up,0.41674699999930453,None,85.49194890000035,85.49198179999985,None,,,,,,,,,,,009,001,2026-01-28_16h46.59.885,NESC3137_EEG_experiment,,2025.1.1,144.99751329138323,2026-01-28 16h47.25.810031 -0400,
63,0,63,up,0.36127980000037496,None,None,,,63,0,63,0,85.4981528999997,,,,,,,,,,,,,,,,,,,,85.49214529999972,85.4981528999997,86.47039419999965,86.46371809999982,1,86.46553140000015,86.47039419999965,86.47039419999965,86.96335799999997,86.96335799999997,86.95670040000005,up,0.36127980000037496,None,86.95673729999999,86.9567520999999,None,,,,,,,,,,,009,001,2026-01-28_16h46.59.885,NESC3137_EEG_experiment,,2025.1.1,144.99751329138323,2026-01-28 16h47.25.810031 -0400,
64,0,64,down,0.3458393000000797,None,None,,,64,0,64,0,86.96335799999997,,,,,,,,,,,,,,,,,,,,86.95686550000028,86.96335799999997,87.90916990000005,87.90134229999967,2,87.90300300000035,87.90916990000005,87.90916990000005,88.40114919999996,88.40114919999996,88.3946847999996,down,0.3458393000000797,None,88.39471950000006,88.39473360000011,None,,,,,,,,,,,009,001,2026-01-28_16h46.59.885,NESC3137_EEG_experiment,,2025.1.1,144.99751329138323,2026-01-28 16h47.25.810031 -0400,
65,0,65,down,0.4002423000001727,None,None,,,65,0,65,0,88.40114919999996,,,,,,,,,,,,,,,,,,,,88.39483029999974,88.40114919999996,89.1107449000001,89.10355880000043,2,89.10520989999986,89.1107449000001,89.1107449000001,89.60257920000004,89.60257920000004,89.59578349999992,down,0.4002423000001727,None,89.59583370000018,89.59586080000008,None,,,,,,,,,,,009,001,2026-01-28_16h46.59.885,NESC3137_EEG_experiment,,2025.1.1,144.99751329138323,2026-01-28 16h47.25.810031 -0400,
66,0,66,down,0.3920703000003414,None,None,,,66,0,66,0,89.60257920000004,,,,,,,,,,,,,,,,,,,,89.59599479999997,89.60257920000004,90.47093430000041,90.46413560000019,2,90.46594170000026,90.47093430000041,90.47093430000041,90.96421819999978,90.96421819999978,90.95733550000023,down,0.3920703000003414,None,90.95738770000025,90.95741730000009,None,,,,,,,,,,,009,001,2026-01-28_16h46.59.885,NESC3137_EEG_experiment,,2025.1.1,144.99751329138323,2026-01-28 16h47.25.810031 -0400,
67,0,67,down,0.37572050000017043,None,None,,,67,0,67,0,90.96421819999978,,,,,,,,,,,,,,,,,,,,90.95759400000043,90.96421819999978,91.57525559999976,91.56855170000017,2,91.57071879999967,91.57525559999976,91.57525559999976,92.0682539999998,92.0682539999998,92.06145680000009,down,0.37572050000017043,None,92.06151359999967,92.06154160000006,None,,,,,,,,,,,009,001,2026-01-28_16h46.59.885,NESC3137_EEG_experiment,,2025.1.1,144.99751329138323,2026-01-28 16h47.25.810031 -0400,
68,0,68,down,0.3802240000004531,None,None,,,68,0,68,0,92.0682539999998,,,,,,,,,,,,,,,,,,,,92.06170230000043,92.0682539999998,92.61078759999964,92.6032610000002,2,92.60487250000006,92.61078759999964,92.61078759999964,93.10306299999957,93.10306299999957,93.09628309999971,down,0.3802240000004531,None,93.09631890000037,93.09633389999999,None,,,,,,,,,,,009,001,2026-01-28_16h46.59.885,NESC3137_EEG_experiment,,2025.1.1,144.99751329138323,2026-01-28 16h47.25.810031 -0400,
69,0,69,up,0.34887570000046253,0.12797460000001593,None,,,69,0,69,0,93.10306299999957,,,,,,,,,,,,,,,,,,,,93.09643599999981,93.10306299999957,93.87410900000032,93.86732539999957,1,93.86937219999982,93.87410900000032,93.87410900000032,94.36904409999988,94.36904409999988,94.36040049999974,up,0.34887570000046253,0.12797460000001593,94.36044099999981,94.36045529999956,None,,,,,,,,,,,009,001,2026-01-28_16h46.59.885,NESC3137_EEG_experiment,,2025.1.1,144.99751329138323,2026-01-28 16h47.25.810031 -0400,
70,0,70,down,0.3146421999999802,None,None,,,70,0,70,0,94.36904409999988,,,,,,,,,,,,,,,,,,,,94.36056000000008,94.36904409999988,94.96455909999986,94.9592276000003,2,94.96108699999968,94.96455909999986,94.96455909999986,95.45783810000012,95.45783810000012,95.45097890000034,down,0.3146421999999802,None,95.45102740000038,95.45104300000003,None,,,,,,,,,,,009,001,2026-01-28_16h46.59.885,NESC3137_EEG_experiment,,2025.1.1,144.99751329138323,2026-01-28 16h47.25.810031 -0400,
71,0,71,up,0.32052010000006703,0.12015369999971881,None,,,71,0,71,0,95.45783810000012,,,,,,,,,,,,,,,,,,,,95.45115170000008,95.45783810000012,96.16644129999986,96.15950650000013,1,96.16126520000034,96.16644129999986,96.16644129999986,96.65963209999973,96.65963209999973,96.65244330000041,up,0.32052010000006703,0.12015369999971881,96.65248020000035,96.65249390000008,None,,,,,,,,,,,009,001,2026-01-28_16h46.59.885,NESC3137_EEG_experiment,,2025.1.1,144.99751329138323,2026-01-28 16h47.25.810031 -0400,
72,0,72,up,0.4125488999998197,None,None,,,72,0,72,0,96.65963209999973,,,,,,,,,,,,,,,,,,,,96.65260209999997,96.65963209999973,97.35444900000039,97.34827479999967,1,97.35002509999958,97.35444900000039,97.35444900000039,97.84684560000005,97.84684560000005,97.84026119999999,up,0.4125488999998197,None,97.84031839999989,97.84034820000034,None,,,,,,,,,,,009,001,2026-01-28_16h46.59.885,NESC3137_EEG_experiment,,2025.1.1,144.99751329138323,2026-01-28 16h47.25.810031 -0400,
73,0,73,down,0.35826170000018465,None,None,,,73,0,73,0,97.84684560000005,,,,,,,,,,,,,,,,,,,,97.84045859999969,97.84684560000005,98.78473219999978,98.77765420000014,2,98.77948550000019,98.78473219999978,98.78473219999978,99.27769350000017,99.27769350000017,99.27257960000043,down,0.35826170000018465,None,99.27262009999959,99.27263570000014,None,,,,,,,,,,,009,001,2026-01-28_16h46.59.885,NESC3137_EEG_experiment,,2025.1.1,144.99751329138323,2026-01-28 16h47.25.810031 -0400,
74,0,74,down,0.33970989999943413,0.11966280000069673,None,,,74,0,74,0,99.27769350000017,,,,,,,,,,,,,,,,,,,,99.2727447999996,99.27769350000017,100.13970530000006,100.13220319999982,2,100.13391919999958,100.13970530000006,100.13970530000006,100.6320826000001,100.6320826000001,100.6265497000004,down,0.33970989999943413,0.11966280000069673,100.62660969999979,100.62663960000009,None,,,,,,,,,,,009,001,2026-01-28_16h46.59.885,NESC3137_EEG_experiment,,2025.1.1,144.99751329138323,2026-01-28 16h47.25.810031 -0400,
75,0,75,down,0.3388328000000911,0.12800909999987198,None,,,75,0,75,0,100.6320826000001,,,,,,,,,,,,,,,,,,,,100.62680639999962,100.6320826000001,101.35620519999975,101.34794210000018,2,101.34958639999968,101.35620519999975,101.35620519999975,101.84798229999979,101.84798229999979,101.84092760000021,down,0.3388328000000911,0.12800909999987198,101.84096310000041,101.84097779999956,None,,,,,,,,,,,009,001,2026-01-28_16h46.59.885,NESC3137_EEG_experiment,,2025.1.1,144.99751329138323,2026-01-28 16h47.25.810031 -0400,
76,0,76,up,0.34533989999999903,0.11216909999984637,None,,,76,0,76,0,101.84798229999979,,,,,,,,,,,,,,,,,,,,101.84108469999956,101.84798229999979,102.59763089999979,102.59072980000019,1,102.59285509999972,102.59763089999979,102.59763089999979,103.09079769999971,103.09079769999971,103.08400270000038,up,0.34533989999999903,0.11216909999984637,103.08403879999969,103.08405370000037,None,,,,,,,,,,,009,001,2026-01-28_16h46.59.885,NESC3137_EEG_experiment,,2025.1.1,144.99751329138323,2026-01-28 16h47.25.810031 -0400,
77,0,77,up,0.32781710000017483,0.12002339999980904,None,,,77,0,77,0,103.09079769999971,,,,,,,,,,,,,,,,,,,,103.08415650000006,103.09079769999971,104.06314750000001,104.05593769999996,1,104.0577959000002,104.06314750000001,104.06314750000001,104.55701099999987,104.55701099999987,104.54978099999971,up,0.32781710000017483,0.12002339999980904,104.54982039999959,104.5498348000001,None,,,,,,,,,,,009,001,2026-01-28_16h46.59.885,NESC3137_EEG_experiment,,2025.1.1,144.99751329138323,2026-01-28 16h47.25.810031 -0400,
78,0,78,up,0.41766330000064045,None,None,,,78,0,78,0,104.55701099999987,,,,,,,,,,,,,,,,,,,,104.54993509999986,104.55701099999987,105.28543100000024,105.27830689999973,1,105.2799914999996,105.28543100000024,105.28543100000024,105.77830910000011,105.77830910000011,105.77182470000025,up,0.41766330000064045,None,105.77187729999969,105.77190359999986,None,,,,,,,,,,,009,001,2026-01-28_16h46.59.885,NESC3137_EEG_experiment,,2025.1.1,144.99751329138323,2026-01-28 16h47.25.810031 -0400,
79,0,79,down,0.3858423000001494,None,None,,,79,0,79,0,105.77830910000011,,,,,,,,,,,,,,,,,,,,105.77206490000026,105.77830910000011,106.70914079999966,106.70243860000028,2,106.70437899999979,106.70914079999966,106.70914079999966,107.2032706,107.2032706,107.19584250000025,down,0.3858423000001494,None,107.19588860000022,107.19590280000011,None,,,,,,,,,,,009,001,2026-01-28_16h46.59.885,NESC3137_EEG_experiment,,2025.1.1,144.99751329138323,2026-01-28 16h47.25.810031 -0400,
80,0,80,up,0.34953959999984363,None,None,,,80,0,80,0,107.2032706,,,,,,,,,,,,,,,,,,,,107.19600199999968,107.2032706,107.9534378999997,107.94576570000027,1,107.94745200000034,107.9534378999997,107.9534378999997,108.44693999999981,108.44693999999981,108.43846899999971,up,0.34953959999984363,None,108.43851149999955,108.43852539999989,None,,,,,,,,,,,009,001,2026-01-28_16h46.59.885,NESC3137_EEG_experiment,,2025.1.1,144.99751329138323,2026-01-28 16h47.25.810031 -0400,
81,0,81,down,0.3901523999993515,None,None,,,81,0,81,0,108.44693999999981,,,,,,,,,,,,,,,,,,,,108.43862730000001,108.44693999999981,109.42481279999993,109.4187608000002,2,109.4207008000003,109.42481279999993,109.42481279999993,109.91804469999988,109.91804469999988,109.91161960000045,down,0.3901523999993515,None,109.91167959999984,109.91170789999978,None,,,,,,,,,,,009,001,2026-01-28_16h46.59.885,NESC3137_EEG_experiment,,2025.1.1,144.99751329138323,2026-01-28 16h47.25.810031 -0400,
82,0,82,up,0.4014185999994879,None,None,,,82,0,82,0,109.91804469999988,,,,,,,,,,,,,,,,,,,,109.91187009999976,109.91804469999988,110.66181359999973,110.65462560000014,1,110.6569443999997,110.66181359999973,110.66181359999973,111.15465609999956,111.15465609999956,111.14822840000033,up,0.4014185999994879,None,111.14830239999992,111.14831830000003,None,,,,,,,,,,,009,001,2026-01-28_16h46.59.885,NESC3137_EEG_experiment,,2025.1.1,144.99751329138323,2026-01-28 16h47.25.810031 -0400,
83,0,83,up,0.42371129999992263,None,None,,,83,0,83,0,111.15465609999956,,,,,,,,,,,,,,,,,,,,111.14846709999983,111.15465609999956,111.75929059999999,111.75190930000008,1,111.75655449999977,111.75929059999999,111.75929059999999,112.25154810000004,112.25154810000004,112.24461510000037,up,0.42371129999992263,None,112.24467769999956,112.24470519999977,None,,,,,,,,,,,009,001,2026-01-28_16h46.59.885,NESC3137_EEG_experiment,,2025.1.1,144.99751329138323,2026-01-28 16h47.25.810031 -0400,
84,0,84,up,0.40871249999963766,None,None,,,84,0,84,0,112.25154810000004,,,,,,,,,,,,,,,,,,,,112.24486030000025,112.25154810000004,113.18238199999996,113.17523410000013,1,113.17727819999982,113.18238199999996,113.18238199999996,113.67514409999967,113.67514409999967,113.6686079000001,up,0.40871249999963766,None,113.6686450999996,113.66866000000027,None,,,,,,,,,,,009,001,2026-01-28_16h46.59.885,NESC3137_EEG_experiment,,2025.1.1,144.99751329138323,2026-01-28 16h47.25.810031 -0400,
85,0,85,up,0.3781963999999789,None,None,,,85,0,85,0,113.67514409999967,,,,,,,,,,,,,,,,,,,,113.66877810000005,113.67514409999967,114.50875939999969,114.5018984999997,1,114.50360879999971,114.50875939999969,114.50875939999969,115.00261310000042,115.00261310000042,114.99497789999987,up,0.3781963999999789,None,114.99501429999964,114.99502990000019,None,,,,,,,,,,,009,001,2026-01-28_16h46.59.885,NESC3137_EEG_experiment,,2025.1.1,144.99751329138323,2026-01-28 16h47.25.810031 -0400,
86,0,86,None,,,None,,,86,0,86,0,115.00261310000042,,,,,,,,,,,,,,,,,,,,114.9951914000003,115.00261310000042,115.59379110000009,115.58522269999958,1,115.58689520000007,115.59379110000009,115.59379110000009,116.08535070000016,116.08535070000016,116.07866339999964,None,,,116.0787123,116.0787393999999,None,,,,,,,,,,,009,001,2026-01-28_16h46.59.885,NESC3137_EEG_experiment,,2025.1.1,144.99751329138323,2026-01-28 16h47.25.810031 -0400,
87,0,87,down,0.35043359999963286,None,None,,,87,0,87,0,116.08535070000016,,,,,,,,,,,,,,,,,,,,116.07889909999994,116.08535070000016,117.0725650000004,117.06616029999986,2,117.06814620000023,117.0725650000004,117.0725650000004,117.56479060000038,117.56479060000038,117.55806620000021,down,0.35043359999963286,None,117.55812359999982,117.55815220000022,None,,,,,,,,,,,009,001,2026-01-28_16h46.59.885,NESC3137_EEG_experiment,,2025.1.1,144.99751329138323,2026-01-28 16h47.25.810031 -0400,
88,0,88,down,0.4137485999999626,None,None,,,88,0,88,0,117.56479060000038,,,,,,,,,,,,,,,,,,,,117.55831200000011,117.56479060000038,118.53722519999974,118.5305957999999,2,118.53251139999975,118.53722519999974,118.53722519999974,119.03017610000006,119.03017610000006,119.02331890000005,down,0.4137485999999626,None,119.02337119999993,119.02340089999961,None,,,,,,,,,,,009,001,2026-01-28_16h46.59.885,NESC3137_EEG_experiment,,2025.1.1,144.99751329138323,2026-01-28 16h47.25.810031 -0400,
89,0,89,up,0.37473210000007384,None,None,,,89,0,89,0,119.03017610000006,,,,,,,,,,,,,,,,,,,,119.0235561999998,119.03017610000006,119.91288859999986,119.90599910000037,1,119.90781890000017,119.91288859999986,119.91288859999986,120.40544109999973,120.40544109999973,120.39869459999954,up,0.37473210000007384,None,120.39875839999968,120.39878709999994,None,,,,,,,,,,,009,001,2026-01-28_16h46.59.885,NESC3137_EEG_experiment,,2025.1.1,144.99751329138323,2026-01-28 16h47.25.810031 -0400,
90,0,90,None,,,None,,,90,0,90,0,120.40544109999973,,,,,,,,,,,,,,,,,,,,120.39894879999974,120.40544109999973,120.93380220000017,120.92632140000023,2,120.92800669999997,120.93380220000017,120.93380220000017,121.42639400000007,121.42639400000007,121.41989980000017,None,,,121.41995279999992,121.41996889999973,None,,,,,,,,,,,009,001,2026-01-28_16h46.59.885,NESC3137_EEG_experiment,,2025.1.1,144.99751329138323,2026-01-28 16h47.25.810031 -0400,
91,0,91,None,,,None,,,91,0,91,0,121.42639400000007,,,,,,,,,,,,,,,,,,,,121.4201224999997,121.42639400000007,121.96822169999996,121.96127230000002,1,121.96355390000008,121.96822169999996,121.96822169999996,122.46101920000001,122.46101920000001,122.45443259999956,None,,,122.45448990000023,122.45451649999995,None,,,,,,,,,,,009,001,2026-01-28_16h46.59.885,NESC3137_EEG_experiment,,2025.1.1,144.99751329138323,2026-01-28 16h47.25.810031 -0400,
92,0,92,down,0.34971259999929316,None,None,,,92,0,92,0,122.46101920000001,,,,,,,,,,,,,,,,,,,,122.45467709999957,122.46101920000001,123.22528760000023,123.21872919999987,2,123.22075740000037,123.22528760000023,123.22528760000023,123.71833599999991,123.71833599999991,123.71144240000012,down,0.34971259999929316,None,123.71147660000042,123.71149100000002,None,,,,,,,,,,,009,001,2026-01-28_16h46.59.885,NESC3137_EEG_experiment,,2025.1.1,144.99751329138323,2026-01-28 16h47.25.810031 -0400,
93,0,93,up,0.3580983000001652,None,None,,,93,0,93,0,123.71833599999991,,,,,,,,,,,,,,,,,,,,123.71158170000035,123.71833599999991,124.23288709999997,124.2252669999998,1,124.22730520000005,124.23288709999997,124.23288709999997,124.72521729999971,124.72521729999971,124.71856829999979,up,0.3580983000001652,None,124.71860579999975,124.71862330000022,None,,,,,,,,,,,009,001,2026-01-28_16h46.59.885,NESC3137_EEG_experiment,,2025.1.1,144.99751329138323,2026-01-28 16h47.25.810031 -0400,
94,0,94,down,0.34542209999926854,None,None,,,94,0,94,0,124.72521729999971,,,,,,,,,,,,,,,,,,,,124.7187270000004,124.72521729999971,125.35756250000031,125.35056720000011,2,125.35233419999986,125.35756250000031,125.35756250000031,125.85031340000023,125.85031340000023,125.84379919999992,down,0.34542209999926854,None,125.84385320000001,125.84387979999974,None,,,,,,,,,,,009,001,2026-01-28_16h46.59.885,NESC3137_EEG_experiment,,2025.1.1,144.99751329138323,2026-01-28 16h47.25.810031 -0400,
95,0,95,down,0.39465149999978166,None,None,,,95,0,95,0,125.85031340000023,,,,,,,,,,,,,,,,,,,,125.84403689999999,125.85031340000023,126.74038279999968,126.73302799999965,2,126.73471849999987,126.74038279999968,126.74038279999968,127.23263039999983,127.23263039999983,127.22566970000025,down,0.39465149999978166,None,127.22570470000028,127.2257184,None,,,,,,,,,,,009,001,2026-01-28_16h46.59.885,NESC3137_EEG_experiment,,2025.1.1,144.99751329138323,2026-01-28 16h47.25.810031 -0400,
96,0,96,None,,,None,,,96,0,96,0,127.23263039999983,,,,,,,,,,,,,,,,,,,,127.2258181999996,127.23263039999983,127.76764269999967,127.76042059999963,2,127.76202379999995,127.76764269999967,127.76764269999967,128.26048460000038,128.26048460000038,128.25492080000004,None,,,128.25505160000012,128.25509220000004,None,,,,,,,,,,,009,001,2026-01-28_16h46.59.885,NESC3137_EEG_experiment,,2025.1.1,144.99751329138323,2026-01-28 16h47.25.810031 -0400,
97,0,97,down,0.44839609999962704,None,None,,,97,0,97,0,128.26048460000038,,,,,,,,,,,,,,,,,,,,128.25537150000036,128.26048460000038,129.14259740000034,129.13580920000004,2,129.13755899999978,129.14259740000034,129.14259740000034,129.6358221999999,129.6358221999999,129.6288794000002,down,0.44839609999962704,None,129.62891539999964,129.62893019999956,None,,,,,,,,,,,009,001,2026-01-28_16h46.59.885,NESC3137_EEG_experiment,,2025.1.1,144.99751329138323,2026-01-28 16h47.25.810031 -0400,
98,0,98,up,0.3241832000003342,0.12000420000003942,None,,,98,0,98,0,129.6358221999999,,,,,,,,,,,,,,,,,,,,129.62903610000012,129.6358221999999,130.378823,130.3719517999998,1,130.37371330000042,130.378823,130.378823,130.87184030000026,130.87184030000026,130.86506519999966,up,0.3241832000003342,0.12000420000003942,130.8651235999996,130.86514999999963,None,,,,,,,,,,,009,001,2026-01-28_16h46.59.885,NESC3137_EEG_experiment,,2025.1.1,144.99751329138323,2026-01-28 16h47.25.810031 -0400,
99,0,99,down,0.37132819999987987,0.08042600000044331,None,,,99,0,99,0,130.87184030000026,,,,,,,,,,,,,,,,,,,,130.86530940000011,130.87184030000026,131.42776390000017,131.4208362999998,1,131.42294310000034,131.42776390000017,131.42776390000017,131.92055450000043,131.92055450000043,131.91393470000003,down,0.37132819999987987,0.08042600000044331,131.9139779999996,131.91399319999982,None,,,,,,,,,,,009,001,2026-01-28_16h46.59.885,NESC3137_EEG_experiment,,2025.1.1,144.99751329138323,2026-01-28 16h47.25.810031 -0400,
100,0,100,up,0.35208520000014687,None,None,,,100,0,100,0,131.92055450000043,,,,,,,,,,,,,,,,,,,,131.91409759999988,131.92055450000043,132.67892949999987,132.6709867999998,1,132.67261159999998,132.67892949999987,132.67892949999987,133.17198720000033,133.17198720000033,133.1641571,up,0.35208520000014687,None,133.16421139999966,133.16423940000004,None,,,,,,,,,,,009,001,2026-01-28_16h46.59.885,NESC3137_EEG_experiment,,2025.1.1,144.99751329138323,2026-01-28 16h47.25.810031 -0400,
101,0,101,down,0.43608539999968343,None,None,,,101,0,101,0,133.17198720000033,,,,,,,,,,,,,,,,,,,,133.16440039999998,133.17198720000033,133.8590519999998,133.85160730000007,2,133.8532908999996,133.8590519999998,133.8590519999998,134.35174600000028,134.35174600000028,134.34566730000006,down,0.43608539999968343,None,134.34574659999998,134.34577780000018,None,,,,,,,,,,,009,001,2026-01-28_16h46.59.885,NESC3137_EEG_experiment,,2025.1.1,144.99751329138323,2026-01-28 16h47.25.810031 -0400,
102,0,102,down,0.3375456000003396,None,None,,,102,0,102,0,134.35174600000028,,,,,,,,,,,,,,,,,,,,134.34597570000005,134.35174600000028,135.21395940000002,135.20659290000003,2,135.20848229999956,135.21395940000002,135.21395940000002,135.70696020000014,135.70696020000014,135.69901240000036,down,0.3375456000003396,None,135.69905730000028,135.69907150000017,None,,,,,,,,,,,009,001,2026-01-28_16h46.59.885,NESC3137_EEG_experiment,,2025.1.1,144.99751329138323,2026-01-28 16h47.25.810031 -0400,
103,0,103,down,0.3733900999995967,None,None,,,103,0,103,0,135.70696020000014,,,,,,,,,,,,,,,,,,,,135.69917389999955,135.70696020000014,136.39358919999995,136.38814610000009,2,136.3898863000004,136.39358919999995,136.39358919999995,136.88690700000006,136.88690700000006,136.8797725000004,down,0.3733900999995967,None,136.87982300000021,136.87983789999998,None,,,,,,,,,,,009,001,2026-01-28_16h46.59.885,NESC3137_EEG_experiment,,2025.1.1,144.99751329138323,2026-01-28 16h47.25.810031 -0400,
104,0,104,down,0.39958799999931216,None,None,,,104,0,104,0,136.88690700000006,,,,,,,,,,,,,,,,,,,,136.87994600000002,136.88690700000006,137.5674237000003,137.56015219999972,2,137.56177380000008,137.5674237000003,137.5674237000003,138.0604790999996,138.0604790999996,138.0535159000001,down,0.39958799999931216,None,138.05357060000006,138.05359690000023,None,,,,,,,,,,,009,001,2026-01-28_16h46.59.885,NESC3137_EEG_experiment,,2025.1.1,144.99751329138323,2026-01-28 16h47.25.810031 -0400,
105,0,105,down,0.30612029999974766,0.11195609999958833,None,,,105,0,105,0,138.0604790999996,,,,,,,,,,,,,,,,,,,,138.05375209999966,138.0604790999996,138.90091740000025,138.8944118999998,2,138.89610189999985,138.90091740000025,138.90091740000025,139.39374270000008,139.39374270000008,139.38721689999966,down,0.30612029999974766,0.11195609999958833,139.38725499999964,139.38726909999968,None,,,,,,,,,,,009,001,2026-01-28_16h46.59.885,NESC3137_EEG_experiment,,2025.1.1,144.99751329138323,2026-01-28 16h47.25.810031 -0400,
106,0,106,up,0.4692936000001282,None,None,,,106,0,106,0,139.39374270000008,,,,,,,,,,,,,,,,,,,,139.38738420000027,139.39374270000008,140.03403450000042,140.02622580000025,1,140.02790600000026,140.03403450000042,140.03403450000042,140.52581379999992,140.52581379999992,140.51906419999978,up,0.4692936000001282,None,140.51912989999983,140.5191580999999,None,,,,,,,,,,,009,001,2026-01-28_16h46.59.885,NESC3137_EEG_experiment,,2025.1.1,144.99751329138323,2026-01-28 16h47.25.810031 -0400,
107,0,107,down,0.3204089999999269,0.1442919000000984,None,,,107,0,107,0,140.52581379999992,,,,,,,,,,,,,,,,,,,,140.5193118999996,140.52581379999992,141.20661409999957,141.19980459999988,2,141.20159450000028,141.20661409999957,141.20661409999957,141.7004495000001,141.7004495000001,141.69285190000028,down,0.3204089999999269,0.1442919000000984,141.69291129999965,141.69293819999984,None,,,,,,,,,,,009,001,2026-01-28_16h46.59.885,NESC3137_EEG_experiment,,2025.1.1,144.99751329138323,2026-01-28 16h47.25.810031 -0400,
108,0,108,down,0.32349380000050587,None,None,,,108,0,108,0,141.7004495000001,,,,,,,,,,,,,,,,,,,,141.69309539999995,141.7004495000001,142.45154249999996,142.4428826000003,2,142.4445028,142.45154249999996,142.45154249999996,142.9430357000001,142.9430357000001,142.93613050000022,down,0.32349380000050587,None,142.93619469999976,142.93622159999995,None,,,,,,,,,,,009,001,2026-01-28_16h46.59.885,NESC3137_EEG_experiment,,2025.1.1,144.99751329138323,2026-01-28 16h47.25.810031 -0400,
109,0,109,down,0.30833700000039244,0.15205150000019785,None,,,109,0,109,0,142.9430357000001,,,,,,,,,,,,,,,,,,,,142.93637959999978,142.9430357000001,143.76263759999983,143.7557582999998,2,143.75810160000037,143.76263759999983,143.76263759999983,144.2556050000003,144.2556050000003,144.2506040999997,down,0.30833700000039244,0.15205150000019785,144.25064959999963,144.25066439999955,None,,,,,,,,,,,009,001,2026-01-28_16h46.59.885,NESC3137_EEG_experiment,,2025.1.1,144.99751329138323,2026-01-28 16h47.25.810031 -0400,
110,0,110,up,0.31633570000030886,0.12803359999998065,None,,,110,0,110,0,144.2556050000003,,,,,,,,,,,,,,,,,,,,144.25084590000006,144.2556050000003,145.02671269999973,145.02111849999983,1,145.0233529999996,145.02671269999973,145.02671269999973,145.51985650000006,145.51985650000006,145.51301280000007,up,0.31633570000030886,0.12803359999998065,145.51305159999993,145.51306680000016,None,,,,,,,,,,,009,001,2026-01-28_16h46.59.885,NESC3137_EEG_experiment,,2025.1.1,144.99751329138323,2026-01-28 16h47.25.810031 -0400,
111,0,111,up,0.3752849000002243,None,None,,,111,0,111,0,145.51985650000006,,,,,,,,,,,,,,,,,,,,145.51316860000043,145.51985650000006,146.27166639999996,146.26367089999985,1,146.26532260000022,146.27166639999996,146.27166639999996,146.76320020000003,146.76320020000003,146.75659910000013,up,0.3752849000002243,None,146.75663600000007,146.7566654000002,None,,,,,,,,,,,009,001,2026-01-28_16h46.59.885,NESC3137_EEG_experiment,,2025.1.1,144.99751329138323,2026-01-28 16h47.25.810031 -0400,
112,0,112,up,0.38261789999978646,None,None,,,112,0,112,0,146.76320020000003,,,,,,,,,,,,,,,,,,,,146.7567793999997,146.76320020000003,147.36039429999983,147.3533478999998,1,147.35562610000034,147.36039429999983,147.36039429999983,147.85332990000006,147.85332990000006,147.84676070000023,up,0.38261789999978646,None,147.84681780000028,147.8468455000002,None,,,,,,,,,,,009,001,2026-01-28_16h46.59.885,NESC3137_EEG_experiment,,2025.1.1,144.99751329138323,2026-01-28 16h47.25.810031 -0400,
113,0,113,up,0.38132299999961106,None,None,,,113,0,113,0,147.85332990000006,,,,,,,,,,,,,,,,,,,,147.8470086999996,147.85332990000006,148.82583009999962,148.81906270000036,1,148.82107480000013,148.82583009999962,148.82583009999962,149.318808,149.318808,149.31188790000033,up,0.38132299999961106,None,149.3119386999997,149.31196629999977,None,,,,,,,,,,,009,001,2026-01-28_16h46.59.885,NESC3137_EEG_experiment,,2025.1.1,144.99751329138323,2026-01-28 16h47.25.810031 -0400,
114,0,114,up,0.36998490000041784,None,None,,,114,0,114,0,149.318808,,,,,,,,,,,,,,,,,,,,149.31212059999962,149.318808,149.853564,149.84791570000016,1,149.84978070000034,149.853564,149.853564,150.34664479999992,150.34664479999992,150.34034280000014,up,0.36998490000041784,None,150.34041669999988,150.34044960000028,None,,,,,,,,,,,009,001,2026-01-28_16h46.59.885,NESC3137_EEG_experiment,,2025.1.1,144.99751329138323,2026-01-28 16h47.25.810031 -0400,
115,0,115,up,0.40288200000031793,None,None,,,115,0,115,0,150.34664479999992,,,,,,,,,,,,,,,,,,,,150.34065050000027,150.34664479999992,151.07614470000044,151.06936810000025,1,151.07115109999995,151.07614470000044,151.07614470000044,151.56941490000008,151.56941490000008,151.56245039999976,up,0.40288200000031793,None,151.5624957,151.56251069999962,None,,,,,,,,,,,009,001,2026-01-28_16h46.59.885,NESC3137_EEG_experiment,,2025.1.1,144.99751329138323,2026-01-28 16h47.25.810031 -0400,
116,0,116,down,0.43018100000062987,None,None,,,116,0,116,0,151.56941490000008,,,,,,,,,,,,,,,,,,,,151.5626282000003,151.56941490000008,152.09697229999983,152.09009129999959,2,152.09204359999967,152.09697229999983,152.09697229999983,152.58985610000036,152.58985610000036,152.5831645999997,down,0.43018100000062987,None,152.5832201000003,152.58324619999985,None,,,,,,,,,,,009,001,2026-01-28_16h46.59.885,NESC3137_EEG_experiment,,2025.1.1,144.99751329138323,2026-01-28 16h47.25.810031 -0400,
117,0,117,down,0.4281687000002421,None,None,,,117,0,117,0,152.58985610000036,,,,,,,,,,,,,,,,,,,,152.58340640000006,152.58985610000036,153.1388377000003,153.13187780000044,2,153.1337384999997,153.1388377000003,153.1388377000003,153.6319970000004,153.6319970000004,153.62541770000007,down,0.4281687000002421,None,153.6254614999998,153.62547579999955,None,,,,,,,,,,,009,001,2026-01-28_16h46.59.885,NESC3137_EEG_experiment,,2025.1.1,144.99751329138323,2026-01-28 16h47.25.810031 -0400,
118,0,118,up,0.3078801999999996,0.11207310000008874,None,,,118,0,118,0,153.6319970000004,,,,,,,,,,,,,,,,,,,,153.62558069999977,153.6319970000004,154.24309209999956,154.2362138999997,1,154.23846979999962,154.24309209999956,154.24309209999956,154.7362151999996,154.7362151999996,154.72953770000004,up,0.3078801999999996,0.11207310000008874,154.72957680000036,154.72959100000026,None,,,,,,,,,,,009,001,2026-01-28_16h46.59.885,NESC3137_EEG_experiment,,2025.1.1,144.99751329138323,2026-01-28 16h47.25.810031 -0400,
119,0,119,up,0.4063550999999279,None,None,,,119,0,119,0,154.7362151999996,,,,,,,,,,,,,,,,,,,,154.72969829999965,154.7362151999996,155.53667060000043,155.5279614000001,1,155.52959660000033,155.53667060000043,155.53667060000043,156.02903630000037,156.02903630000037,156.02098860000024,up,0.4063550999999279,None,156.02102360000026,156.02103970000007,None,,,,,,,,,,,009,001,2026-01-28_16h46.59.885,NESC3137_EEG_experiment,,2025.1.1,144.99751329138323,2026-01-28 16h47.25.810031 -0400,
120,0,120,up,0.36568609999994806,None,None,,,120,0,120,0,156.02903630000037,,,,,,,,,,,,,,,,,,,,156.0211502000002,156.02903630000037,156.62546829999974,156.61850950000007,1,156.62041200000021,156.62546829999974,156.62546829999974,157.11827650000032,157.11827650000032,157.11217060000035,up,0.36568609999994806,None,157.11220539999977,157.11221980000028,None,,,,,,,,,,,009,001,2026-01-28_16h46.59.885,NESC3137_EEG_experiment,,2025.1.1,144.99751329138323,2026-01-28 16h47.25.810031 -0400,
121,0,121,down,0.3788254999999481,None,None,,,121,0,121,0,157.11827650000032,,,,,,,,,,,,,,,,,,,,157.11232819999987,157.11827650000032,158.08414979999998,158.07699820000016,2,158.0786478,158.08414979999998,158.08414979999998,158.5772949000002,158.5772949000002,158.57169450000038,down,0.3788254999999481,None,158.57174459999987,158.57176900000013,None,,,,,,,,,,,009,001,2026-01-28_16h46.59.885,NESC3137_EEG_experiment,,2025.1.1,144.99751329138323,2026-01-28 16h47.25.810031 -0400,
122,0,122,None,,,None,,,122,0,122,0,158.5772949000002,,,,,,,,,,,,,,,,,,,,158.57191799999964,158.5772949000002,159.28561160000027,159.2785915000004,2,159.28037370000038,159.28561160000027,159.28561160000027,159.77972330000011,159.77972330000011,159.7715029000001,None,,,159.77153970000018,159.77155550000043,None,,,,,,,,,,,009,001,2026-01-28_16h46.59.885,NESC3137_EEG_experiment,,2025.1.1,144.99751329138323,2026-01-28 16h47.25.810031 -0400,
123,0,123,down,0.4022272000001976,None,None,,,123,0,123,0,159.77972330000011,,,,,,,,,,,,,,,,,,,,159.77165870000044,159.77972330000011,160.66078259999995,160.6535788000001,2,160.6552228999999,160.66078259999995,160.66078259999995,161.15345100000013,161.15345100000013,161.14818079999986,down,0.4022272000001976,None,161.1482186000003,161.14823559999968,None,,,,,,,,,,,009,001,2026-01-28_16h46.59.885,NESC3137_EEG_experiment,,2025.1.1,144.99751329138323,2026-01-28 16h47.25.810031 -0400,
124,0,124,None,,,None,,,124,0,124,0,161.15345100000013,,,,,,,,,,,,,,,,,,,,161.1483576999999,161.15345100000013,161.66158919999998,161.65460989999974,1,161.65700000000015,161.66158919999998,161.66158919999998,162.15369960000044,162.15369960000044,162.1468163999998,None,,,162.14684820000002,162.1468617999999,None,,,,,,,,,,,009,001,2026-01-28_16h46.59.885,NESC3137_EEG_experiment,,2025.1.1,144.99751329138323,2026-01-28 16h47.25.810031 -0400,
125,0,125,up,0.34749490000012884,0.11190739999983634,None,,,125,0,125,0,162.15369960000044,,,,,,,,,,,,,,,,,,,,162.14696060000006,162.15369960000044,163.14759529999992,163.14010409999992,1,163.14154130000043,163.14759529999992,163.14759529999992,163.64009720000013,163.64009720000013,163.63335900000038,up,0.34749490000012884,0.11190739999983634,163.63339710000037,163.63341219999984,None,,,,,,,,,,,009,001,2026-01-28_16h46.59.885,NESC3137_EEG_experiment,,2025.1.1,144.99751329138323,2026-01-28 16h47.25.810031 -0400,
126,0,126,down,0.3289143000001786,0.14398939999955473,None,,,126,0,126,0,163.64009720000013,,,,,,,,,,,,,,,,,,,,163.6335264999998,163.64009720000013,164.4461150999996,164.43884799999978,2,164.44072570000026,164.4461150999996,164.4461150999996,164.93882980000035,164.93882980000035,164.9320641000004,down,0.3289143000001786,0.14398939999955473,164.9321232000002,164.9321385000003,None,,,,,,,,,,,009,001,2026-01-28_16h46.59.885,NESC3137_EEG_experiment,,2025.1.1,144.99751329138323,2026-01-28 16h47.25.810031 -0400,
127,0,127,up,0.33876620000046387,0.12806259999979375,None,,,127,0,127,0,164.93882980000035,,,,,,,,,,,,,,,,,,,,164.93224230000033,164.93882980000035,165.66822239999965,165.66275599999972,1,165.6647168999998,165.66822239999965,165.66822239999965,166.16214279999986,166.16214279999986,166.1547430999999,up,0.33876620000046387,0.12806259999979375,166.15477900000042,166.15479289999985,None,,,,,,,,,,,009,001,2026-01-28_16h46.59.885,NESC3137_EEG_experiment,,2025.1.1,144.99751329138323,2026-01-28 16h47.25.810031 -0400,
128,0,128,up,0.3482686000006652,None,None,,,128,0,128,0,166.16214279999986,,,,,,,,,,,,,,,,,,,,166.15494659999968,166.16214279999986,166.99470199999996,166.98930800000016,1,166.9911430000002,166.99470199999996,166.99470199999996,167.48783920000005,167.48783920000005,167.481581,up,0.3482686000006652,None,167.4816311000004,167.48165770000014,None,,,,,,,,,,,009,001,2026-01-28_16h46.59.885,NESC3137_EEG_experiment,,2025.1.1,144.99751329138323,2026-01-28 16h47.25.810031 -0400,
129,0,129,down,0.37529410000024654,None,None,,,129,0,129,0,167.48783920000005,,,,,,,,,,,,,,,,,,,,167.48180169999978,167.48783920000005,168.28769829999965,168.2799385999997,2,168.28155499999957,168.28769829999965,168.28769829999965,168.77963780000027,168.77963780000027,168.77316489999976,down,0.37529410000024654,None,168.77322389999972,168.77324990000034,None,,,,,,,,,,,009,001,2026-01-28_16h46.59.885,NESC3137_EEG_experiment,,2025.1.1,144.99751329138323,2026-01-28 16h47.25.810031 -0400,
130,0,130,up,0.3271714000002248,0.1365189999996801,None,,,130,0,130,0,168.77963780000027,,,,,,,,,,,,,,,,,,,,168.7733779,168.77963780000027,169.6077965000004,169.59922509999979,1,169.60083200000008,169.6077965000004,169.6077965000004,170.09916220000014,170.09916220000014,170.09241939999993,up,0.3271714000002248,0.1365189999996801,170.0924855000003,170.09251229999973,None,,,,,,,,,,,009,001,2026-01-28_16h46.59.885,NESC3137_EEG_experiment,,2025.1.1,144.99751329138323,2026-01-28 16h47.25.810031 -0400,
131,0,131,up,0.31588990000000194,0.1280149000003803,None,,,131,0,131,0,170.09916220000014,,,,,,,,,,,,,,,,,,,,170.09267360000013,170.09916220000014,170.89909970000008,170.89219649999995,1,170.89391009999963,170.89909970000008,170.89909970000008,171.3910063000003,171.3910063000003,171.38437410000006,up,0.31588990000000194,0.1280149000003803,171.38442730000043,171.38445500000034,None,,,,,,,,,,,009,001,2026-01-28_16h46.59.885,NESC3137_EEG_experiment,,2025.1.1,144.99751329138323,2026-01-28 16h47.25.810031 -0400,
132,0,132,down,0.3044835000000603,None,None,,,132,0,132,0,171.3910063000003,,,,,,,,,,,,,,,,,,,,171.3846126999997,171.3910063000003,172.34258039999986,172.33677210000042,2,172.33940059999986,172.34258039999986,172.34258039999986,172.8371358000004,172.8371358000004,172.82994419999977,down,0.3044835000000603,None,172.8300148999997,172.83003290000033,None,,,,,,,,,,,009,001,2026-01-28_16h46.59.885,NESC3137_EEG_experiment,,2025.1.1,144.99751329138323,2026-01-28 16h47.25.810031 -0400,
133,0,133,up,0.3118635999999242,0.13544159999946714,None,,,133,0,133,0,172.8371358000004,,,,,,,,,,,,,,,,,,,,172.83018449999963,172.8371358000004,173.7596977000003,173.75293059999967,1,173.75514019999991,173.7596977000003,173.7596977000003,174.2526945999998,174.2526945999998,174.2466543999999,up,0.3118635999999242,0.13544159999946714,174.24672120000014,174.24673749999965,None,,,,,,,,,,,009,001,2026-01-28_16h46.59.885,NESC3137_EEG_experiment,,2025.1.1,144.99751329138323,2026-01-28 16h47.25.810031 -0400,
134,0,134,up,0.3789028999999573,None,None,,,134,0,134,0,174.2526945999998,,,,,,,,,,,,,,,,,,,,174.24687280000035,174.2526945999998,175.20410720000018,175.1970381000001,1,175.19870319999973,175.20410720000018,175.20410720000018,175.69794610000008,175.69794610000008,175.69024189999982,up,0.3789028999999573,None,175.6902769999997,175.6902911999996,None,,,,,,,,,,,009,001,2026-01-28_16h46.59.885,NESC3137_EEG_experiment,,2025.1.1,144.99751329138323,2026-01-28 16h47.25.810031 -0400,
135,0,135,None,,,None,,,135,0,135,0,175.69794610000008,,,,,,,,,,,,,,,,,,,,175.69039189999967,175.69794610000008,176.55268700000033,176.545384,2,176.54688429999987,176.55268700000033,176.55268700000033,177.04572649999955,177.04572649999955,177.03799290000006,None,,,177.03802389999964,177.03803700000026,None,,,,,,,,,,,009,001,2026-01-28_16h46.59.885,NESC3137_EEG_experiment,,2025.1.1,144.99751329138323,2026-01-28 16h47.25.810031 -0400,
136,0,136,down,0.427298200000223,None,None,,,136,0,136,0,177.04572649999955,,,,,,,,,,,,,,,,,,,,177.0381365000003,177.04572649999955,177.78775779999978,177.7809215999996,2,177.78291929999978,177.78775779999978,177.78775779999978,178.28238049999982,178.28238049999982,178.2741199000002,down,0.427298200000223,None,178.27416100000028,178.27417530000002,None,,,,,,,,,,,009,001,2026-01-28_16h46.59.885,NESC3137_EEG_experiment,,2025.1.1,144.99751329138323,2026-01-28 16h47.25.810031 -0400,
137,0,137,up,0.387675400000262,None,None,,,137,0,137,0,178.28238049999982,,,,,,,,,,,,,,,,,,,,178.27427329999955,178.28238049999982,179.00334870000006,178.99667099999988,1,178.9989415,179.00334870000006,179.00334870000006,179.49780809999993,179.49780809999993,179.49031190000005,up,0.387675400000262,None,179.49035430000004,179.49036969999997,None,,,,,,,,,,,009,001,2026-01-28_16h46.59.885,NESC3137_EEG_experiment,,2025.1.1,144.99751329138323,2026-01-28 16h47.25.810031 -0400,
138,0,138,None,,,None,,,138,0,138,0,179.49780809999993,,,,,,,,,,,,,,,,,,,,179.49047410000003,179.49780809999993,180.19128360000013,180.1844613000003,2,180.18607679999968,180.19128360000013,180.19128360000013,180.68375039999955,180.68375039999955,180.67802240000037,None,,,180.67809980000038,180.67814480000015,None,,,,,,,,,,,009,001,2026-01-28_16h46.59.885,NESC3137_EEG_experiment,,2025.1.1,144.99751329138323,2026-01-28 16h47.25.810031 -0400,
139,0,139,None,,,None,,,139,0,139,0,180.68375039999955,,,,,,,,,,,,,,,,,,,,180.6783360999998,180.68375039999955,181.5522047000004,181.5460696,1,181.5484620999996,181.5522047000004,181.5522047000004,182.0478691999997,182.0478691999997,182.0383496000004,None,,,182.0384051000001,182.03843830000005,None,,,,,,,,,,,009,001,2026-01-28_16h46.59.885,NESC3137_EEG_experiment,,2025.1.1,144.99751329138323,2026-01-28 16h47.25.810031 -0400,
140,0,140,None,,,None,,,140,0,140,0,182.0478691999997,,,,,,,,,,,,,,,,,,,,182.03862910000043,182.0478691999997,182.64966900000036,182.64383269999962,1,182.6461744999997,182.64966900000036,182.64966900000036,183.14261179999994,183.14261179999994,183.1359226000004,None,,,183.13596119999966,183.13597969999955,None,,,,,,,,,,,009,001,2026-01-28_16h46.59.885,NESC3137_EEG_experiment,,2025.1.1,144.99751329138323,2026-01-28 16h47.25.810031 -0400,
141,0,141,None,,,None,,,141,0,141,0,183.14261179999994,,,,,,,,,,,,,,,,,,,,183.13610880000033,183.14261179999994,183.73295510000025,183.72624819999965,1,183.72834109999985,183.73295510000025,183.73295510000025,184.22675569999956,184.22675569999956,184.2206438000003,None,,,184.22069850000025,184.22073290000026,None,,,,,,,,,,,009,001,2026-01-28_16h46.59.885,NESC3137_EEG_experiment,,2025.1.1,144.99751329138323,2026-01-28 16h47.25.810031 -0400,
142,0,142,None,,,None,,,142,0,142,0,184.22675569999956,,,,,,,,,,,,,,,,,,,,184.22092429999975,184.22675569999956,185.1368749000003,185.12975600000027,2,185.13182510000024,185.1368749000003,185.1368749000003,185.62926739999966,185.62926739999966,185.62370180000016,None,,,185.62375859999975,185.62379340000007,None,,,,,,,,,,,009,001,2026-01-28_16h46.59.885,NESC3137_EEG_experiment,,2025.1.1,144.99751329138323,2026-01-28 16h47.25.810031 -0400,
143,0,143,None,,,None,,,143,0,143,0,185.62926739999966,,,,,,,,,,,,,,,,,,,,185.62399249999999,185.62926739999966,186.2680362000001,186.26285980000011,1,186.26485669999965,186.2680362000001,186.2680362000001,186.7637421999998,186.7637421999998,186.75436509999963,None,,,186.75440309999976,186.75442180000027,None,,,,,,,,,,,009,001,2026-01-28_16h46.59.885,NESC3137_EEG_experiment,,2025.1.1,144.99751329138323,2026-01-28 16h47.25.810031 -0400,
144,0,144,None,,,None,,,144,0,144,0,186.7637421999998,,,,,,,,,,,,,,,,,,,,186.7545428000003,186.7637421999998,187.56800219999968,187.55995729999995,2,187.56191949999993,187.56800219999968,187.56800219999968,188.06281339999987,188.06281339999987,188.0530214999999,None,,,188.05307509999966,188.05310100000042,None,,,,,,,,,,,009,001,2026-01-28_16h46.59.885,NESC3137_EEG_experiment,,2025.1.1,144.99751329138323,2026-01-28 16h47.25.810031 -0400,
145,0,145,None,,,None,,,145,0,145,0,188.06281339999987,,,,,,,,,,,,,,,,,,,,188.0532188999996,188.06281339999987,188.86678790000042,188.85886370000026,2,188.8609803999998,188.86678790000042,188.86678790000042,189.35866499999975,189.35866499999975,189.35283400000026,None,,,189.35289019999982,189.35292860000027,None,,,,,,,,,,,009,001,2026-01-28_16h46.59.885,NESC3137_EEG_experiment,,2025.1.1,144.99751329138323,2026-01-28 16h47.25.810031 -0400,
146,0,146,None,,,None,,,146,0,146,0,189.35866499999975,,,,,,,,,,,,,,,,,,,,189.35306889999993,189.35866499999975,189.99124279999978,189.98423340000045,1,189.9863261999999,189.99124279999978,189.99124279999978,190.48377319999963,190.48377319999963,190.4772726000001,None,,,190.4773191000004,190.47734599999967,None,,,,,,,,,,,009,001,2026-01-28_16h46.59.885,NESC3137_EEG_experiment,,2025.1.1,144.99751329138323,2026-01-28 16h47.25.810031 -0400,
147,0,147,None,,,None,,,147,0,147,0,190.48377319999963,,,,,,,,,,,,,,,,,,,,190.47750639999958,190.48377319999963,191.38046080000004,191.37343409999994,2,191.37556980000045,191.38046080000004,191.38046080000004,191.8730501,191.8730501,191.86610290000044,None,,,191.86615999999958,191.86619379999956,None,,,,,,,,,,,009,001,2026-01-28_16h46.59.885,NESC3137_EEG_experiment,,2025.1.1,144.99751329138323,2026-01-28 16h47.25.810031 -0400,
148,0,148,None,,,None,,,148,0,148,0,191.8730501,,,,,,,,,,,,,,,,,,,,191.86634400000003,191.8730501,192.42174580000028,192.41526570000042,2,192.4177996999997,192.42174580000028,192.42174580000028,192.9148685,192.9148685,192.9078172999998,None,,,192.90788820000034,192.90792349999992,None,,,,,,,,,,,009,001,2026-01-28_16h46.59.885,NESC3137_EEG_experiment,,2025.1.1,144.99751329138323,2026-01-28 16h47.25.810031 -0400,
149,0,149,None,,,None,,,149,0,149,0,192.9148685,,,,,,,,,,,,,,,,,,,,192.90815310000016,192.9148685,193.7628568,193.75579949999974,1,193.75792050000018,193.7628568,193.7628568,194.2552985000002,194.2552985000002,194.2491858000003,None,,,194.2492269000004,194.2492457999997,None,,,,,,,,,,,009,001,2026-01-28_16h46.59.885,NESC3137_EEG_experiment,,2025.1.1,144.99751329138323,2026-01-28 16h47.25.810031 -0400,
150,0,150,None,,,None,,,150,0,150,0,194.2552985000002,,,,,,,,,,,,,,,,,,,,194.24937099999988,194.2552985000002,194.81920009999976,194.81068799999957,1,194.81266649999998,194.81920009999976,194.81920009999976,195.31065769999987,195.31065769999987,195.30560369999966,None,,,195.30564289999984,195.3056614999996,None,,,,,,,,,,,009,001,2026-01-28_16h46.59.885,NESC3137_EEG_experiment,,2025.1.1,144.99751329138323,2026-01-28 16h47.25.810031 -0400,
151,0,151,None,,,None,,,151,0,151,0,195.31065769999987,,,,,,,,,,,,,,,,,,,,195.30579219999981,195.31065769999987,195.8454952000002,195.83890729999985,2,195.8417454999999,195.8454952000002,195.8454952000002,196.33914840000034,196.33914840000034,196.33458080000037,None,,,196.33461379999972,196.3346290999998,None,,,,,,,,,,,009,001,2026-01-28_16h46.59.885,NESC3137_EEG_experiment,,2025.1.1,144.99751329138323,2026-01-28 16h47.25.810031 -0400,
152,0,152,None,,,None,,,152,0,152,0,196.33914840000034,,,,,,,,,,,,,,,,,,,,196.33473510000022,196.33914840000034,197.1594396999999,197.1520405000001,1,197.15403330000026,197.1594396999999,197.1594396999999,197.65124209999976,197.65124209999976,197.64453529999992,None,,,197.64457380000022,197.6445923000001,None,,,,,,,,,,,009,001,2026-01-28_16h46.59.885,NESC3137_EEG_experiment,,2025.1.1,144.99751329138323,2026-01-28 16h47.25.810031 -0400,
153,0,153,None,,,None,,,153,0,153,0,197.65124209999976,,,,,,,,,,,,,,,,,,,,197.6447121000001,197.65124209999976,198.4223689999999,198.41675140000007,1,198.41910000000007,198.4223689999999,198.4223689999999,198.91689330000008,198.91689330000008,198.90851370000019,None,,,198.90855139999985,198.90856950000034,None,,,,,,,,,,,009,001,2026-01-28_16h46.59.885,NESC3137_EEG_experiment,,2025.1.1,144.99751329138323,2026-01-28 16h47.25.810031 -0400,
154,0,154,None,,,None,,,154,0,154,0,198.91689330000008,,,,,,,,,,,,,,,,,,,,198.90868489999957,198.91689330000008,199.5765405000002,199.56827710000016,2,199.57037169999967,199.5765405000002,199.5765405000002,200.06810169999972,200.06810169999972,200.06136030000016,None,,,200.0613917999999,200.06140620000042,None,,,,,,,,,,,009,001,2026-01-28_16h46.59.885,NESC3137_EEG_experiment,,2025.1.1,144.99751329138323,2026-01-28 16h47.25.810031 -0400,
155,0,155,None,,,None,,,155,0,155,0,200.06810169999972,,,,,,,,,,,,,,,,,,,,200.0615055999997,200.06810169999972,200.65423040000042,200.6447605000003,2,200.6465503999998,200.65423040000042,200.65423040000042,201.14820520000012,201.14820520000012,201.13809149999997,None,,,201.13814530000036,201.1381792000002,None,,,,,,,,,,,009,001,2026-01-28_16h46.59.885,NESC3137_EEG_experiment,,2025.1.1,144.99751329138323,2026-01-28 16h47.25.810031 -0400,
156,0,156,None,,,None,,,156,0,156,0,201.14820520000012,,,,,,,,,,,,,,,,,,,,201.13836850000007,201.14820520000012,201.93728190000002,201.93076680000013,2,201.9327470999997,201.93728190000002,201.93728190000002,202.4297921999996,202.4297921999996,202.42392850000033,None,,,202.42396980000012,202.42398839999987,None,,,,,,,,,,,009,001,2026-01-28_16h46.59.885,NESC3137_EEG_experiment,,2025.1.1,144.99751329138323,2026-01-28 16h47.25.810031 -0400,
157,0,157,None,,,None,,,157,0,157,0,202.4297921999996,,,,,,,,,,,,,,,,,,,,202.42411420000008,202.4297921999996,203.27127120000023,203.26325540000016,1,203.26535719999993,203.27127120000023,203.27127120000023,203.76440360000015,203.76440360000015,203.75662470000043,None,,,203.75668080000014,203.75671690000036,None,,,,,,,,,,,009,001,2026-01-28_16h46.59.885,NESC3137_EEG_experiment,,2025.1.1,144.99751329138323,2026-01-28 16h47.25.810031 -0400,
158,0,158,None,,,None,,,158,0,158,0,203.76440360000015,,,,,,,,,,,,,,,,,,,,203.75691319999987,203.76440360000015,204.57703169999968,204.56897599999957,2,204.5709939999997,204.57703169999968,204.57703169999968,205.07135240000025,205.07135240000025,205.06274550000035,None,,,205.06280309999966,205.0628324999998,None,,,,,,,,,,,009,001,2026-01-28_16h46.59.885,NESC3137_EEG_experiment,,2025.1.1,144.99751329138323,2026-01-28 16h47.25.810031 -0400,
159,0,159,None,,,None,,,159,0,159,0,205.07135240000025,,,,,,,,,,,,,,,,,,,,205.06296740000016,205.07135240000025,206.05063849999988,206.04155600000013,2,206.04362219999985,206.05063849999988,206.05063849999988,206.54207570000017,206.54207570000017,206.53457369999978,None,,,206.53462860000036,206.53466430000026,None,,,,,,,,,,,009,001,2026-01-28_16h46.59.885,NESC3137_EEG_experiment,,2025.1.1,144.99751329138323,2026-01-28 16h47.25.810031 -0400,
160,0,160,None,,,None,,,160,0,160,0,206.54207570000017,,,,,,,,,,,,,,,,,,,,206.5348541000003,206.54207570000017,207.06417669999973,207.0556786999996,2,207.05786540000008,207.06417669999973,207.06417669999973,207.55698159999974,207.55698159999974,207.54855279999992,None,,,207.54860590000044,207.54863959999966,None,,,,,,,,,,,009,001,2026-01-28_16h46.59.885,NESC3137_EEG_experiment,,2025.1.1,144.99751329138323,2026-01-28 16h47.25.810031 -0400,
161,0,161,None,,,None,,,161,0,161,0,207.55698159999974,,,,,,,,,,,,,,,,,,,,207.54883009999958,207.55698159999974,208.0763493000004,208.06992040000023,2,208.07235729999957,208.0763493000004,208.0763493000004,208.56928040000003,208.56928040000003,208.5636900999998,None,,,208.56375329999992,208.56379379999998,None,,,,,,,,,,,009,001,2026-01-28_16h46.59.885,NESC3137_EEG_experiment,,2025.1.1,144.99751329138323,2026-01-28 16h47.25.810031 -0400,
162,0,162,None,,,None,,,162,0,162,0,208.56928040000003,,,,,,,,,,,,,,,,,,,,208.5639669000002,208.56928040000003,209.31582789999993,209.30582700000014,2,209.30812810000043,209.31582789999993,209.31582789999993,209.80619110000043,209.80619110000043,209.79879770000025,None,,,209.79883590000009,209.79885550000017,None,,,,,,,,,,,009,001,2026-01-28_16h46.59.885,NESC3137_EEG_experiment,,2025.1.1,144.99751329138323,2026-01-28 16h47.25.810031 -0400,
163,0,163,None,,,None,,,163,0,163,0,209.80619110000043,,,,,,,,,,,,,,,,,,,,209.79898560000038,209.80619110000043,210.4586761999999,210.45483260000037,1,210.4566236999999,210.4586761999999,210.4586761999999,210.95180179999988,210.95180179999988,210.9468592000003,None,,,210.94691760000023,210.94695260000026,None,,,,,,,,,,,009,001,2026-01-28_16h46.59.885,NESC3137_EEG_experiment,,2025.1.1,144.99751329138323,2026-01-28 16h47.25.810031 -0400,
164,0,164,None,,,None,,,164,0,164,0,210.95180179999988,,,,,,,,,,,,,,,,,,,,210.94714610000028,210.95180179999988,211.6699668000001,211.66034169999966,2,211.66235479999978,211.6699668000001,211.6699668000001,212.16032509999968,212.16032509999968,212.1558087000003,None,,,212.15584800000033,212.15586749999966,None,,,,,,,,,,,009,001,2026-01-28_16h46.59.885,NESC3137_EEG_experiment,,2025.1.1,144.99751329138323,2026-01-28 16h47.25.810031 -0400,
165,0,165,None,,,None,,,165,0,165,0,212.16032509999968,,,,,,,,,,,,,,,,,,,,212.15599380000003,212.16032509999968,213.10479269999996,213.09814480000023,1,213.10067340000023,213.10479269999996,213.10479269999996,213.5977241999999,213.5977241999999,213.5918633000001,None,,,213.5919789999998,213.5920242000002,None,,,,,,,,,,,009,001,2026-01-28_16h46.59.885,NESC3137_EEG_experiment,,2025.1.1,144.99751329138323,2026-01-28 16h47.25.810031 -0400,
166,0,166,None,,,None,,,166,0,166,0,213.5977241999999,,,,,,,,,,,,,,,,,,,,213.59243659999993,213.5977241999999,214.17593250000027,214.16770670000005,1,214.17001470000014,214.17593250000027,214.17593250000027,214.66761279999992,214.66761279999992,214.6610929999997,None,,,214.66114019999986,214.66116630000033,None,,,,,,,,,,,009,001,2026-01-28_16h46.59.885,NESC3137_EEG_experiment,,2025.1.1,144.99751329138323,2026-01-28 16h47.25.810031 -0400,
167,0,167,None,,,None,,,167,0,167,0,214.66761279999992,,,,,,,,,,,,,,,,,,,,214.66132480000033,214.66761279999992,215.63293599999997,215.62694660000034,2,215.62932679999994,215.63293599999997,215.63293599999997,216.1261139999997,216.1261139999997,216.11937820000003,None,,,216.11941699999988,216.11943450000035,None,,,,,,,,,,,009,001,2026-01-28_16h46.59.885,NESC3137_EEG_experiment,,2025.1.1,144.99751329138323,2026-01-28 16h47.25.810031 -0400,
168,0,168,None,,,None,,,168,0,168,0,216.1261139999997,,,,,,,,,,,,,,,,,,,,216.11955990000024,216.1261139999997,216.70951549999972,216.7029824000001,2,216.70503550000012,216.70951549999972,216.70951549999972,217.2025560000002,217.2025560000002,217.19576870000037,None,,,217.19580750000023,217.19582509999964,None,,,,,,,,,,,009,001,2026-01-28_16h46.59.885,NESC3137_EEG_experiment,,2025.1.1,144.99751329138323,2026-01-28 16h47.25.810031 -0400,
169,0,169,None,,,None,,,169,0,169,0,217.2025560000002,,,,,,,,,,,,,,,,,,,,217.1959436999996,217.2025560000002,217.95368469999994,217.9474583000001,1,217.94968210000025,217.95368469999994,217.95368469999994,218.44731870000032,218.44731870000032,218.4390241000001,None,,,218.43907769999987,218.43911130000015,None,,,,,,,,,,,009,001,2026-01-28_16h46.59.885,NESC3137_EEG_experiment,,2025.1.1,144.99751329138323,2026-01-28 16h47.25.810031 -0400,
170,0,170,None,,,None,,,170,0,170,0,218.44731870000032,,,,,,,,,,,,,,,,,,,,218.43930100000034,218.44731870000032,218.96664099999998,218.96061929999996,1,218.96269029999985,218.96664099999998,218.96664099999998,219.45981440000014,219.45981440000014,219.45297719999962,None,,,219.4530525,219.45308990000012,None,,,,,,,,,,,009,001,2026-01-28_16h46.59.885,NESC3137_EEG_experiment,,2025.1.1,144.99751329138323,2026-01-28 16h47.25.810031 -0400,
171,0,171,None,,,None,,,171,0,171,0,219.45981440000014,,,,,,,,,,,,,,,,,,,,219.45333169999958,219.45981440000014,220.21192150000024,220.20307070000035,2,220.20511420000003,220.21192150000024,220.21192150000024,220.70288840000012,220.70288840000012,220.69821899999988,None,,,220.69827439999972,220.6983081999997,None,,,,,,,,,,,009,001,2026-01-28_16h46.59.885,NESC3137_EEG_experiment,,2025.1.1,144.99751329138323,2026-01-28 16h47.25.810031 -0400,
172,0,172,None,,,None,,,172,0,172,0,220.70288840000012,,,,,,,,,,,,,,,,,,,,220.6984994000004,220.70288840000012,221.29359420000037,221.28811399999995,2,221.2899064000003,221.29359420000037,221.29359420000037,221.78686920000018,221.78686920000018,221.7798389999998,None,,,221.7798832999997,221.77990219999992,None,,,,,,,,,,,009,001,2026-01-28_16h46.59.885,NESC3137_EEG_experiment,,2025.1.1,144.99751329138323,2026-01-28 16h47.25.810031 -0400,
173,0,173,None,,,None,,,173,0,173,0,221.78686920000018,,,,,,,,,,,,,,,,,,,,221.7800225000001,221.78686920000018,222.62697819999994,222.62102049999976,1,222.62318179999966,222.62697819999994,222.62697819999994,223.1207999999997,223.1207999999997,223.11330439999983,None,,,223.1133619000002,223.11338960000012,None,,,,,,,,,,,009,001,2026-01-28_16h46.59.885,NESC3137_EEG_experiment,,2025.1.1,144.99751329138323,2026-01-28 16h47.25.810031 -0400,
174,0,174,None,,,None,,,174,0,174,0,223.1207999999997,,,,,,,,,,,,,,,,,,,,223.11357729999963,223.1207999999997,223.67548520000037,223.66915210000025,1,223.67183920000025,223.67548520000037,223.67548520000037,224.1694097999998,224.1694097999998,224.1617898000004,None,,,224.16182730000037,224.1618451000004,None,,,,,,,,,,,009,001,2026-01-28_16h46.59.885,NESC3137_EEG_experiment,,2025.1.1,144.99751329138323,2026-01-28 16h47.25.810031 -0400,
175,0,175,None,,,None,,,175,0,175,0,224.1694097999998,,,,,,,,,,,,,,,,,,,,224.16196670000045,224.1694097999998,225.0577589000004,225.0507421000002,1,225.0528187,225.0577589000004,225.0577589000004,225.55087660000027,225.55087660000027,225.5462217000004,None,,,225.54626009999993,225.5462776000004,None,,,,,,,,,,,009,001,2026-01-28_16h46.59.885,NESC3137_EEG_experiment,,2025.1.1,144.99751329138323,2026-01-28 16h47.25.810031 -0400,
176,0,176,None,,,None,,,176,0,176,0,225.55087660000027,,,,,,,,,,,,,,,,,,,,225.54641150000043,225.55087660000027,226.3081269000004,226.30157039999995,2,226.3035858000003,226.3081269000004,226.3081269000004,226.80082289999973,226.80082289999973,226.79405080000015,None,,,226.79410929999995,226.79413449999993,None,,,,,,,,,,,009,001,2026-01-28_16h46.59.885,NESC3137_EEG_experiment,,2025.1.1,144.99751329138323,2026-01-28 16h47.25.810031 -0400,
177,0,177,None,,,None,,,177,0,177,0,226.80082289999973,,,,,,,,,,,,,,,,,,,,226.7942849000001,226.80082289999973,227.69004239999958,227.68400800000018,1,227.68669039999986,227.69004239999958,227.69004239999958,228.1829577999997,228.1829577999997,228.17960330000005,None,,,228.17964630000006,228.17966570000044,None,,,,,,,,,,,009,001,2026-01-28_16h46.59.885,NESC3137_EEG_experiment,,2025.1.1,144.99751329138323,2026-01-28 16h47.25.810031 -0400,
178,0,178,None,,,None,,,178,0,178,0,228.1829577999997,,,,,,,,,,,,,,,,,,,,228.1797999999999,228.1829577999997,228.90597809999963,228.89881030000015,1,228.9012160000002,228.90597809999963,228.90597809999963,229.3985633000002,229.3985633000002,229.3920674000001,None,,,229.39213089999976,229.39216380000016,None,,,,,,,,,,,009,001,2026-01-28_16h46.59.885,NESC3137_EEG_experiment,,2025.1.1,144.99751329138323,2026-01-28 16h47.25.810031 -0400,
179,0,179,None,,,None,,,179,0,179,0,229.3985633000002,,,,,,,,,,,,,,,,,,,,229.3923648,229.3985633000002,230.2044377000002,230.1984967999997,2,230.20110750000003,230.2044377000002,230.2044377000002,230.69839990000037,230.69839990000037,230.69047090000004,None,,,230.69052569999985,230.69055910000043,None,,,,,,,,,,,009,001,2026-01-28_16h46.59.885,NESC3137_EEG_experiment,,2025.1.1,144.99751329138323,2026-01-28 16h47.25.810031 -0400,
180,0,180,None,,,None,,,180,0,180,0,230.69839990000037,,,,,,,,,,,,,,,,,,,,230.6907543999996,230.69839990000037,231.41314820000025,231.4075173000001,2,231.40980209999998,231.41314820000025,231.41314820000025,231.90612820000024,231.90612820000024,231.89918670000043,None,,,231.89922409999963,231.8992420000004,None,,,,,,,,,,,009,001,2026-01-28_16h46.59.885,NESC3137_EEG_experiment,,2025.1.1,144.99751329138323,2026-01-28 16h47.25.810031 -0400,
181,0,181,None,,,None,,,181,0,181,0,231.90612820000024,,,,,,,,,,,,,,,,,,,,231.89936529999977,231.90612820000024,232.69992829999956,232.69094270000005,1,232.69297600000027,232.69992829999956,232.69992829999956,233.19058270000005,233.19058270000005,233.18579059999956,None,,,233.18582969999989,233.1858476999996,None,,,,,,,,,,,009,001,2026-01-28_16h46.59.885,NESC3137_EEG_experiment,,2025.1.1,144.99751329138323,2026-01-28 16h47.25.810031 -0400,
182,0,182,None,,,None,,,182,0,182,0,233.19058270000005,,,,,,,,,,,,,,,,,,,,233.18597210000007,233.19058270000005,234.05882329999986,234.05213829999957,2,234.0543931000002,234.05882329999986,234.05882329999986,234.55388969999967,234.55388969999967,234.54523340000014,None,,,234.54526389999955,234.54527770000004,None,,,,,,,,,,,009,001,2026-01-28_16h46.59.885,NESC3137_EEG_experiment,,2025.1.1,144.99751329138323,2026-01-28 16h47.25.810031 -0400,
183,0,183,None,,,None,,,183,0,183,0,234.55388969999967,,,,,,,,,,,,,,,,,,,,234.5453739000004,234.55388969999967,235.36481430000003,235.3576436000003,1,235.35960859999977,235.36481430000003,235.36481430000003,235.85779139999977,235.85779139999977,235.85112279999976,None,,,235.85116339999968,235.85118109999985,None,,,,,,,,,,,009,001,2026-01-28_16h46.59.885,NESC3137_EEG_experiment,,2025.1.1,144.99751329138323,2026-01-28 16h47.25.810031 -0400,
184,0,184,None,,,None,,,184,0,184,0,235.85779139999977,,,,,,,,,,,,,,,,,,,,235.8513309,235.85779139999977,236.78851829999985,236.7824238000003,1,236.78458429999955,236.78851829999985,236.78851829999985,237.28162969999994,237.28162969999994,237.27536229999987,None,,,237.27542429999994,237.2754463000001,None,,,,,,,,,,,009,001,2026-01-28_16h46.59.885,NESC3137_EEG_experiment,,2025.1.1,144.99751329138323,2026-01-28 16h47.25.810031 -0400,
185,0,185,None,,,None,,,185,0,185,0,237.28162969999994,,,,,,,,,,,,,,,,,,,,237.27608520000013,237.28162969999994,237.83020510000006,237.8248924999998,2,237.82699140000022,237.83020510000006,237.83020510000006,238.3232392,238.3232392,238.31677599999966,None,,,238.31682120000005,238.31684719999976,None,,,,,,,,,,,009,001,2026-01-28_16h46.59.885,NESC3137_EEG_experiment,,2025.1.1,144.99751329138323,2026-01-28 16h47.25.810031 -0400,
186,0,186,None,,,None,,,186,0,186,0,238.3232392,,,,,,,,,,,,,,,,,,,,238.31700550000005,238.3232392,239.10107049999988,239.0967959999998,1,239.0988895999999,239.10107049999988,239.10107049999988,239.59416099999999,239.59416099999999,239.58793679999962,None,,,239.58801980000044,239.5880401000004,None,,,,,,,,,,,009,001,2026-01-28_16h46.59.885,NESC3137_EEG_experiment,,2025.1.1,144.99751329138323,2026-01-28 16h47.25.810031 -0400,
187,0,187,None,,,None,,,187,0,187,0,239.59416099999999,,,,,,,,,,,,,,,,,,,,239.5881843999996,239.59416099999999,240.4486439000002,240.4434707999999,1,240.44571739999992,240.4486439000002,240.4486439000002,240.94171220000044,240.94171220000044,240.9351614999996,None,,,240.9352073,240.93523189999996,None,,,,,,,,,,,009,001,2026-01-28_16h46.59.885,NESC3137_EEG_experiment,,2025.1.1,144.99751329138323,2026-01-28 16h47.25.810031 -0400,
188,0,188,None,,,None,,,188,0,188,0,240.94171220000044,,,,,,,,,,,,,,,,,,,,240.93538309999985,240.94171220000044,241.63637930000004,241.6295087999997,2,241.6315979000001,241.63637930000004,241.63637930000004,242.1291873,242.1291873,242.12256660000003,None,,,242.12260530000003,242.1226231999999,None,,,,,,,,,,,009,001,2026-01-28_16h46.59.885,NESC3137_EEG_experiment,,2025.1.1,144.99751329138323,2026-01-28 16h47.25.810031 -0400,
189,0,189,None,,,None,,,189,0,189,0,242.1291873,,,,,,,,,,,,,,,,,,,,242.12274609999986,242.1291873,242.6296382999999,242.6228361000003,2,242.62488190000022,242.6296382999999,242.6296382999999,243.1224484000004,243.1224484000004,243.1193787000002,None,,,243.1194191000004,243.11943780000001,None,,,,,,,,,,,009,001,2026-01-28_16h46.59.885,NESC3137_EEG_experiment,,2025.1.1,144.99751329138323,2026-01-28 16h47.25.810031 -0400,
190,0,190,None,,,None,,,190,0,190,0,243.1224484000004,,,,,,,,,,,,,,,,,,,,243.11958810000033,243.1224484000004,244.0755132000004,244.06740379999974,1,244.06933860000026,244.0755132000004,244.0755132000004,244.56726290000006,244.56726290000006,244.5606039000004,None,,,244.56064359999982,244.56066180000016,None,,,,,,,,,,,009,001,2026-01-28_16h46.59.885,NESC3137_EEG_experiment,,2025.1.1,144.99751329138323,2026-01-28 16h47.25.810031 -0400,
191,0,191,None,,,None,,,191,0,191,0,244.56726290000006,,,,,,,,,,,,,,,,,,,,244.56081259999974,244.56726290000006,245.36812360000022,245.3592362999998,2,245.36130130000038,245.36812360000022,245.36812360000022,245.8591905000003,245.8591905000003,245.85244049999983,None,,,245.85251320000043,245.85254950000035,None,,,,,,,,,,,009,001,2026-01-28_16h46.59.885,NESC3137_EEG_experiment,,2025.1.1,144.99751329138323,2026-01-28 16h47.25.810031 -0400,
192,0,192,None,,,None,,,192,0,192,0,245.8591905000003,,,,,,,,,,,,,,,,,,,,245.85274029999982,245.8591905000003,246.6238653999999,246.61615540000003,1,246.6182361000001,246.6238653999999,246.6238653999999,247.1162003999998,247.1162003999998,247.10937540000032,None,,,247.1094310999997,247.10946479999984,None,,,,,,,,,,,009,001,2026-01-28_16h46.59.885,NESC3137_EEG_experiment,,2025.1.1,144.99751329138323,2026-01-28 16h47.25.810031 -0400,
193,0,193,None,,,None,,,193,0,193,0,247.1162003999998,,,,,,,,,,,,,,,,,,,,247.10962349999954,247.1162003999998,248.09563789999993,248.08861979999983,1,248.09063789999982,248.09563789999993,248.09563789999993,248.58864489999996,248.58864489999996,248.58168790000036,None,,,248.58172689999992,248.58174489999965,None,,,,,,,,,,,009,001,2026-01-28_16h46.59.885,NESC3137_EEG_experiment,,2025.1.1,144.99751329138323,2026-01-28 16h47.25.810031 -0400,
194,0,194,None,,,None,,,194,0,194,0,248.58864489999996,,,,,,,,,,,,,,,,,,,,248.58186899999964,248.58864489999996,249.51225799999975,249.50672399999985,1,249.50899560000016,249.51225799999975,249.51225799999975,250.00555150000037,250.00555150000037,249.99869500000023,None,,,249.9987332999999,249.9987516000001,None,,,,,,,,,,,009,001,2026-01-28_16h46.59.885,NESC3137_EEG_experiment,,2025.1.1,144.99751329138323,2026-01-28 16h47.25.810031 -0400,
195,0,195,None,,,None,,,195,0,195,0,250.00555150000037,,,,,,,,,,,,,,,,,,,,249.99887769999987,250.00555150000037,250.6238371999998,250.61680129999968,1,250.61884499999996,250.6238371999998,250.6238371999998,251.11770820000038,251.11770820000038,251.10985840000012,None,,,251.10992309999983,251.1099432000001,None,,,,,,,,,,,009,001,2026-01-28_16h46.59.885,NESC3137_EEG_experiment,,2025.1.1,144.99751329138323,2026-01-28 16h47.25.810031 -0400,
196,0,196,None,,,None,,,196,0,196,0,251.11770820000038,,,,,,,,,,,,,,,,,,,,251.11011080000026,251.11770820000038,251.69473600000038,251.68654109999989,1,251.6884811,251.69473600000038,251.69473600000038,252.18630870000015,252.18630870000015,252.17999969999983,None,,,252.18004029999975,252.18006049999985,None,,,,,,,,,,,009,001,2026-01-28_16h46.59.885,NESC3137_EEG_experiment,,2025.1.1,144.99751329138323,2026-01-28 16h47.25.810031 -0400,
197,0,197,None,,,None,,,197,0,197,0,252.18630870000015,,,,,,,,,,,,,,,,,,,,252.1801902999996,252.18630870000015,252.95054429999982,252.9440869,2,252.94625710000037,252.95054429999982,252.95054429999982,253.44342059999963,253.44342059999963,253.4366745999996,None,,,253.43673529999978,253.43676200000027,None,,,,,,,,,,,009,001,2026-01-28_16h46.59.885,NESC3137_EEG_experiment,,2025.1.1,144.99751329138323,2026-01-28 16h47.25.810031 -0400,
198,0,198,None,,,None,,,198,0,198,0,253.44342059999963,,,,,,,,,,,,,,,,,,,,253.43692639999972,253.44342059999963,253.99914569999964,253.9920658000001,2,253.9941804,253.99914569999964,253.99914569999964,254.49183259999973,254.49183259999973,254.4868617000002,None,,,254.48690559999977,254.4869236000004,None,,,,,,,,,,,009,001,2026-01-28_16h46.59.885,NESC3137_EEG_experiment,,2025.1.1,144.99751329138323,2026-01-28 16h47.25.810031 -0400,
199,0,199,None,,,None,,,199,0,199,0,254.49183259999973,,,,,,,,,,,,,,,,,,,,254.48704960000032,254.49183259999973,255.11715089999961,255.1117721999999,2,255.11422270000003,255.11715089999961,255.11715089999961,255.61028220000026,255.61028220000026,255.60353860000032,None,,,255.60359400000016,255.60361399999965,None,,,,,,,,,,,009,001,2026-01-28_16h46.59.885,NESC3137_EEG_experiment,,2025.1.1,144.99751329138323,2026-01-28 16h47.25.810031 -0400,
200,0,200,None,,,space,10.493572300000778,None,200,0,200,0,255.61028220000026,,,,,,,,,,,,,,,,,,,,255.6037422999998,255.61028220000026,256.32808879999993,256.31961969999975,1,256.32215929999984,256.32808879999993,256.32808879999993,256.8189554999999,256.8189554999999,256.8122738000002,None,,,256.8123572000004,297.3036782999998,space,256.8189554999999,286.8095304999997,286.8095304999997,286.8095304999997,10.493572300000778,None,,,,,009,001,2026-01-28_16h46.59.885,NESC3137_EEG_experiment,,2025.1.1,144.99751329138323,2026-01-28 16h47.25.810031 -0400,
201,0,201,down,0.4553990000003978,None,None,,,201,0,201,0,297.31012180000016,,,,,,,,,,,,,,,,,,,,297.3037959000003,297.31012180000016,298.1436498000003,298.1372029000004,2,298.13956419999977,298.1436498000003,298.1436498000003,298.63667389999955,298.63667389999955,298.6299508000002,down,0.4553990000003978,None,298.62999000000036,298.6300060000003,None,,,,,,,,,,,009,001,2026-01-28_16h46.59.885,NESC3137_EEG_experiment,,2025.1.1,144.99751329138323,2026-01-28 16h47.25.810031 -0400,
202,0,202,up,0.43066559999988385,None,None,,,202,0,202,0,298.63667389999955,,,,,,,,,,,,,,,,,,,,298.63010790000044,298.63667389999955,299.5687402000003,299.5605346000002,1,299.5621758999996,299.5687402000003,299.5687402000003,300.0603871000003,300.0603871000003,300.05371809999997,up,0.43066559999988385,None,300.0537531,300.05376669999987,None,,,,,,,,,,,009,001,2026-01-28_16h46.59.885,NESC3137_EEG_experiment,,2025.1.1,144.99751329138323,2026-01-28 16h47.25.810031 -0400,
203,0,203,down,0.37844159999986005,None,None,,,203,0,203,0,300.0603871000003,,,,,,,,,,,,,,,,,,,,300.0538637999998,300.0603871000003,300.6925688000001,300.68588889999955,2,300.6878488000002,300.6925688000001,300.6925688000001,301.1861719999997,301.1861719999997,301.17869229999997,down,0.37844159999986005,None,301.1787419000002,301.1787688000004,None,,,,,,,,,,,009,001,2026-01-28_16h46.59.885,NESC3137_EEG_experiment,,2025.1.1,144.99751329138323,2026-01-28 16h47.25.810031 -0400,
204,0,204,up,0.32758990000002086,0.12800960000004125,None,,,204,0,204,0,301.1861719999997,,,,,,,,,,,,,,,,,,,,301.17891859999963,301.1861719999997,301.9914354000002,301.98463059999995,1,301.9865798000001,301.9914354000002,301.9914354000002,302.48449450000044,302.48449450000044,302.47810599999957,up,0.32758990000002086,0.12800960000004125,302.47814329999983,302.47815850000006,None,,,,,,,,,,,009,001,2026-01-28_16h46.59.885,NESC3137_EEG_experiment,,2025.1.1,144.99751329138323,2026-01-28 16h47.25.810031 -0400,
205,0,205,up,0.33410209999965446,0.11186350000025413,None,,,205,0,205,0,302.48449450000044,,,,,,,,,,,,,,,,,,,,302.47827679999955,302.48449450000044,303.4011429000002,303.3947443999996,1,303.3967524999998,303.4011429000002,303.4011429000002,303.8944352999997,303.8944352999997,303.88836059999994,up,0.33410209999965446,0.11186350000025413,303.88851929999964,303.8885362000001,None,,,,,,,,,,,009,001,2026-01-28_16h46.59.885,NESC3137_EEG_experiment,,2025.1.1,144.99751329138323,2026-01-28 16h47.25.810031 -0400,
206,0,206,down,0.4379048999999213,None,None,,,206,0,206,0,303.8944352999997,,,,,,,,,,,,,,,,,,,,303.88866880000023,303.8944352999997,304.40128600000025,304.3956459000001,2,304.39766340000006,304.40128600000025,304.40128600000025,304.89517069999965,304.89517069999965,304.88789149999957,down,0.4379048999999213,None,304.88795389999996,304.88798140000017,None,,,,,,,,,,,009,001,2026-01-28_16h46.59.885,NESC3137_EEG_experiment,,2025.1.1,144.99751329138323,2026-01-28 16h47.25.810031 -0400,
207,0,207,up,0.3289792000005036,0.11951359999966371,None,,,207,0,207,0,304.89517069999965,,,,,,,,,,,,,,,,,,,,304.8881001,304.89517069999965,305.79052150000007,305.7834853000004,1,305.78533270000025,305.79052150000007,305.79052150000007,306.28346070000043,306.28346070000043,306.27863249999973,up,0.3289792000005036,0.11951359999966371,306.2786729999998,306.27869329999976,None,,,,,,,,,,,009,001,2026-01-28_16h46.59.885,NESC3137_EEG_experiment,,2025.1.1,144.99751329138323,2026-01-28 16h47.25.810031 -0400,
208,0,208,down,0.4507186000000729,None,None,,,208,0,208,0,306.28346070000043,,,,,,,,,,,,,,,,,,,,306.2788228999998,306.28346070000043,306.8603303,306.8532648999999,2,306.8548254999996,306.8603303,306.8603303,307.35344410000016,307.35344410000016,307.3463233000002,down,0.4507186000000729,None,307.3463743000002,307.34640219999983,None,,,,,,,,,,,009,001,2026-01-28_16h46.59.885,NESC3137_EEG_experiment,,2025.1.1,144.99751329138323,2026-01-28 16h47.25.810031 -0400,
