thisN,thisTrialN,thisRepN,key_resp_3.keys,key_resp_4.keys,key_resp_3.rt,key_resp_3.duration,key_resp_4.rt,key_resp_4.duration,trials.thisRepN,trials.thisTrialN,trials.thisN,trials.thisIndex,thisRow.t,notes,lsl_stream.started,lsl_stream.stopped,setup.started,setup.stopped,welcome.started,welcomeimg.started,key_resp.started,welcome.stopped,key_resp.keys,key_resp.rt,key_resp.duration,instruction.started,instructionimg.started,key_resp_2.started,instruction.stopped,key_resp_2.keys,key_resp_2.rt,key_resp_2.duration,fixation.started,cross.started,cross.stopped,fixation.stopped,trigger,face.started,faceStim.started,key_resp_3.started,faceStim.stopped,key_resp_3.stopped,face.stopped,trials.key_resp_3.keys,break_2.started,break_2.stopped,trials.key_resp_4.keys,trials.key_resp_3.rt,trials.key_resp_3.duration,breakimg.started,break2img.started,key_resp_4.started,breakimg.stopped,trials.key_resp_4.rt,trials.key_resp_4.duration,end.started,finish.started,finish.stopped,end.stopped,participant,session,date,expName,expVersion,psychopyVersion,frameRate,expStart,
,,,,,,,,,,,,,,,0.009614699999929144,0.009669399999893358,,,,,,,,,,,,,,,,,,,,,,,,,,,,,,,,,,,,,,,,,,,,005,001,2026-01-21_17h02.26.484,NESC3137_EEG_experiment,,2025.1.1,144.40891985093305,2026-01-21 17h02.46.639468 -0400,
,,,,,,,,,,,,,,,,,0.009685200000149052,0.009702500000003056,,,,,,,,,,,,,,,,,,,,,,,,,,,,,,,,,,,,,,,,,,005,001,2026-01-21_17h02.26.484,NESC3137_EEG_experiment,,2025.1.1,144.40891985093305,2026-01-21 17h02.46.639468 -0400,
,,,,,,,,,,,,,,,,,,,0.009753100000125414,0.011797199999818986,0.011797199999818986,3.6074902999998812,space,3.586786299999858,None,,,,,,,,,,,,,,,,,,,,,,,,,,,,,,,,,,,005,001,2026-01-21_17h02.26.484,NESC3137_EEG_experiment,,2025.1.1,144.40891985093305,2026-01-21 17h02.46.639468 -0400,
,,,,,,,,,,,,,,,,,,,,,,,,,,3.6075172999999268,3.6126945999999407,3.6126945999999407,7.60549170000013,space,3.985878800000137,None,,,,,,,,,,,,,,,,,,,,,,,,,,,,005,001,2026-01-21_17h02.26.484,NESC3137_EEG_experiment,,2025.1.1,144.40891985093305,2026-01-21 17h02.46.639468 -0400,
0,0,0,None,None,,,,,0,0,0,0,7.611700100000235,,,,,,,,,,,,,,,,,,,,7.606801800000085,7.611700100000235,8.549332699999923,8.542456399999992,2,8.544402099999843,8.549332699999923,8.549332699999923,9.043143800000053,9.043143800000053,9.036971200000153,None,9.03701460000002,9.037031800000022,None,,,,,,,,,,,,,005,001,2026-01-21_17h02.26.484,NESC3137_EEG_experiment,,2025.1.1,144.40891985093305,2026-01-21 17h02.46.639468 -0400,
1,0,1,None,None,,,,,1,0,1,0,9.043143800000053,,,,,,,,,,,,,,,,,,,,9.03717850000021,9.043143800000053,9.59807469999987,9.592096500000025,1,9.594354100000146,9.59807469999987,9.59807469999987,10.091664900000069,10.091664900000069,10.085949299999811,None,10.08610469999985,10.08616209999991,None,,,,,,,,,,,,,005,001,2026-01-21_17h02.26.484,NESC3137_EEG_experiment,,2025.1.1,144.40891985093305,2026-01-21 17h02.46.639468 -0400,
2,0,2,None,None,,,,,2,0,2,0,10.091664900000069,,,,,,,,,,,,,,,,,,,,10.086393099999896,10.091664900000069,10.99403089999987,10.987623500000154,2,10.989329999999882,10.99403089999987,10.99403089999987,11.487713200000144,11.487713200000144,11.481873499999892,None,11.48191880000013,11.481941900000038,None,,,,,,,,,,,,,005,001,2026-01-21_17h02.26.484,NESC3137_EEG_experiment,,2025.1.1,144.40891985093305,2026-01-21 17h02.46.639468 -0400,
3,0,3,down,None,0.4155694000000949,None,,,3,0,3,0,11.487713200000144,,,,,,,,,,,,,,,,,,,,11.48204590000023,11.487713200000144,12.439581699999962,12.4318245999998,2,12.433791100000235,12.439581699999962,12.439581699999962,12.93184220000012,12.93184220000012,12.92487200000005,down,12.924905200000012,12.924918700000035,None,0.4155694000000949,None,,,,,,,,,,,005,001,2026-01-21_17h02.26.484,NESC3137_EEG_experiment,,2025.1.1,144.40891985093305,2026-01-21 17h02.46.639468 -0400,
4,0,4,up,None,0.37230319999980566,None,,,4,0,4,0,12.93184220000012,,,,,,,,,,,,,,,,,,,,12.925031600000239,12.93184220000012,13.690159199999925,13.682518200000231,1,13.684661100000085,13.690159199999925,13.690159199999925,14.182040499999857,14.182040499999857,14.175800999999865,up,14.17586510000001,14.17589769999995,None,0.37230319999980566,None,,,,,,,,,,,005,001,2026-01-21_17h02.26.484,NESC3137_EEG_experiment,,2025.1.1,144.40891985093305,2026-01-21 17h02.46.639468 -0400,
5,0,5,up,None,0.4341211999999359,None,,,5,0,5,0,14.182040499999857,,,,,,,,,,,,,,,,,,,,14.176054900000054,14.182040499999857,14.940722800000003,14.933378000000175,1,14.935205600000245,14.940722800000003,14.940722800000003,15.431977000000188,15.431977000000188,15.425403199999892,up,15.425455200000215,15.425481199999922,None,0.4341211999999359,None,,,,,,,,,,,005,001,2026-01-21_17h02.26.484,NESC3137_EEG_experiment,,2025.1.1,144.40891985093305,2026-01-21 17h02.46.639468 -0400,
6,0,6,up,None,0.3965641999998297,None,,,6,0,6,0,15.431977000000188,,,,,,,,,,,,,,,,,,,,15.425648400000227,15.431977000000188,16.36994420000019,16.362760900000012,1,16.364561400000184,16.36994420000019,16.36994420000019,16.86306710000008,16.86306710000008,16.857696399999895,up,16.857746600000155,16.857762399999956,None,0.3965641999998297,None,,,,,,,,,,,005,001,2026-01-21_17h02.26.484,NESC3137_EEG_experiment,,2025.1.1,144.40891985093305,2026-01-21 17h02.46.639468 -0400,
7,0,7,down,None,0.42432019999978365,None,,,7,0,7,0,16.86306710000008,,,,,,,,,,,,,,,,,,,,16.857870100000127,16.86306710000008,17.44616300000007,17.440187199999855,2,17.44262290000006,17.44616300000007,17.44616300000007,17.939468300000044,17.939468300000044,17.932733499999813,down,17.932805800000096,17.932834400000047,None,0.42432019999978365,None,,,,,,,,,,,005,001,2026-01-21_17h02.26.484,NESC3137_EEG_experiment,,2025.1.1,144.40891985093305,2026-01-21 17h02.46.639468 -0400,
8,0,8,None,None,,,,,8,0,8,0,17.939468300000044,,,,,,,,,,,,,,,,,,,,17.933039500000177,17.939468300000044,18.538030300000173,18.529747699999916,1,18.53135999999995,18.538030300000173,18.538030300000173,19.02998179999986,19.02998179999986,19.023034899999857,None,19.02307810000002,19.023104400000193,None,,,,,,,,,,,,,005,001,2026-01-21_17h02.26.484,NESC3137_EEG_experiment,,2025.1.1,144.40891985093305,2026-01-21 17h02.46.639468 -0400,
9,0,9,down,None,0.4511944000000767,None,,,9,0,9,0,19.02998179999986,,,,,,,,,,,,,,,,,,,,19.023259399999915,19.02998179999986,19.79538709999997,19.788398600000164,2,19.790419400000246,19.79538709999997,19.79538709999997,20.287882900000113,20.287882900000113,20.28036209999982,down,20.28039600000011,20.280411400000048,None,0.4511944000000767,None,,,,,,,,,,,005,001,2026-01-21_17h02.26.484,NESC3137_EEG_experiment,,2025.1.1,144.40891985093305,2026-01-21 17h02.46.639468 -0400,
10,0,10,up,None,0.35089449999986755,None,,,10,0,10,0,20.287882900000113,,,,,,,,,,,,,,,,,,,,20.280509900000197,20.287882900000113,21.239597899999808,21.232547000000068,1,21.234288099999958,21.239597899999808,21.239597899999808,21.732145500000115,21.732145500000115,21.725684699999874,up,21.725762600000053,21.725779599999896,None,0.35089449999986755,None,,,,,,,,,,,005,001,2026-01-21_17h02.26.484,NESC3137_EEG_experiment,,2025.1.1,144.40891985093305,2026-01-21 17h02.46.639468 -0400,
11,0,11,None,None,,,,,11,0,11,0,21.732145500000115,,,,,,,,,,,,,,,,,,,,21.725899000000027,21.732145500000115,22.572227600000133,22.565068599999904,2,22.5669527,22.572227600000133,22.572227600000133,23.065185999999812,23.065185999999812,23.058177500000056,None,23.058214399999997,23.05822930000022,None,,,,,,,,,,,,,005,001,2026-01-21_17h02.26.484,NESC3137_EEG_experiment,,2025.1.1,144.40891985093305,2026-01-21 17h02.46.639468 -0400,
12,0,12,up,None,0.3898509999999078,None,,,12,0,12,0,23.065185999999812,,,,,,,,,,,,,,,,,,,,23.058335199999874,23.065185999999812,24.01676069999985,24.010472200000095,1,24.012516300000243,24.01676069999985,24.01676069999985,24.50970240000015,24.50970240000015,24.503471999999874,up,24.503517600000123,24.50353240000004,None,0.3898509999999078,None,,,,,,,,,,,005,001,2026-01-21_17h02.26.484,NESC3137_EEG_experiment,,2025.1.1,144.40891985093305,2026-01-21 17h02.46.639468 -0400,
13,0,13,None,None,,,,,13,0,13,0,24.50970240000015,,,,,,,,,,,,,,,,,,,,24.503636899999947,24.50970240000015,25.259982800000216,25.253780200000165,1,25.255674699999872,25.259982800000216,25.259982800000216,25.752761400000054,25.752761400000054,25.74636139999984,None,25.746422100000018,25.746443999999883,None,,,,,,,,,,,,,005,001,2026-01-21_17h02.26.484,NESC3137_EEG_experiment,,2025.1.1,144.40891985093305,2026-01-21 17h02.46.639468 -0400,
14,0,14,None,None,,,,,14,0,14,0,25.752761400000054,,,,,,,,,,,,,,,,,,,,25.74656210000012,25.752761400000054,26.574399000000085,26.56541449999986,1,26.56702610000002,26.574399000000085,26.574399000000085,27.06606839999995,27.06606839999995,27.05912239999998,None,27.05915529999993,27.059172000000217,None,,,,,,,,,,,,,005,001,2026-01-21_17h02.26.484,NESC3137_EEG_experiment,,2025.1.1,144.40891985093305,2026-01-21 17h02.46.639468 -0400,
15,0,15,up,None,0.43396230000007563,None,,,15,0,15,0,27.06606839999995,,,,,,,,,,,,,,,,,,,,27.059273800000028,27.06606839999995,27.580755599999975,27.573824999999943,1,27.575608000000102,27.580755599999975,27.580755599999975,28.07249929999989,28.07249929999989,28.065906899999845,up,28.06594330000007,28.06595759999982,None,0.43396230000007563,None,,,,,,,,,,,005,001,2026-01-21_17h02.26.484,NESC3137_EEG_experiment,,2025.1.1,144.40891985093305,2026-01-21 17h02.46.639468 -0400,
16,0,16,up,None,0.40683060000037585,None,,,16,0,16,0,28.07249929999989,,,,,,,,,,,,,,,,,,,,28.06606499999998,28.07249929999989,28.65618910000012,28.650268700000197,1,28.65203939999992,28.65618910000012,28.65618910000012,29.149142700000084,29.149142700000084,29.14371549999987,up,29.143782900000133,29.14379820000022,None,0.40683060000037585,None,,,,,,,,,,,005,001,2026-01-21_17h02.26.484,NESC3137_EEG_experiment,,2025.1.1,144.40891985093305,2026-01-21 17h02.46.639468 -0400,
17,0,17,up,None,0.4711115999998583,None,,,17,0,17,0,29.149142700000084,,,,,,,,,,,,,,,,,,,,29.1439091000002,29.149142700000084,29.879466599999887,29.871594600000208,1,29.873686200000066,29.879466599999887,29.879466599999887,30.37230270000009,30.37230270000009,30.366084000000228,up,30.366135499999928,30.366152500000226,None,0.4711115999998583,None,,,,,,,,,,,005,001,2026-01-21_17h02.26.484,NESC3137_EEG_experiment,,2025.1.1,144.40891985093305,2026-01-21 17h02.46.639468 -0400,
18,0,18,up,None,0.30332799999996496,0.16004490000022997,,,18,0,18,0,30.37230270000009,,,,,,,,,,,,,,,,,,,,30.366294500000095,30.37230270000009,31.08712199999991,31.080399500000112,1,31.0822576999999,31.08712199999991,31.08712199999991,31.579902800000127,31.579902800000127,31.57435859999987,up,31.574410199999875,31.574426700000004,None,0.30332799999996496,0.16004490000022997,,,,,,,,,,,005,001,2026-01-21_17h02.26.484,NESC3137_EEG_experiment,,2025.1.1,144.40891985093305,2026-01-21 17h02.46.639468 -0400,
19,0,19,up,None,0.3972251000000142,None,,,19,0,19,0,31.579902800000127,,,,,,,,,,,,,,,,,,,,31.57456970000021,31.579902800000127,32.185261999999966,32.17801569999983,1,32.17981640000016,32.185261999999966,32.185261999999966,32.67790280000008,32.67790280000008,32.67105249999986,up,32.671104800000194,32.67113070000005,None,0.3972251000000142,None,,,,,,,,,,,005,001,2026-01-21_17h02.26.484,NESC3137_EEG_experiment,,2025.1.1,144.40891985093305,2026-01-21 17h02.46.639468 -0400,
20,0,20,up,None,0.4081117999999151,None,,,20,0,20,0,32.67790280000008,,,,,,,,,,,,,,,,,,,,32.67128259999981,32.67790280000008,33.622561700000006,33.61654159999989,1,33.61853569999994,33.622561700000006,33.622561700000006,34.11506420000023,34.11506420000023,34.1093649999998,up,34.10941779999985,34.1094349,None,0.4081117999999151,None,,,,,,,,,,,005,001,2026-01-21_17h02.26.484,NESC3137_EEG_experiment,,2025.1.1,144.40891985093305,2026-01-21 17h02.46.639468 -0400,
21,0,21,down,None,0.423487699999896,None,,,21,0,21,0,34.11506420000023,,,,,,,,,,,,,,,,,,,,34.1095722,34.11506420000023,34.77499540000008,34.76799110000002,2,34.76988859999983,34.77499540000008,34.77499540000008,35.26931710000008,35.26931710000008,35.26139120000016,down,35.26142579999987,35.2614395999999,None,0.423487699999896,None,,,,,,,,,,,005,001,2026-01-21_17h02.26.484,NESC3137_EEG_experiment,,2025.1.1,144.40891985093305,2026-01-21 17h02.46.639468 -0400,
22,0,22,None,None,,,,,22,0,22,0,35.26931710000008,,,,,,,,,,,,,,,,,,,,35.26153890000023,35.26931710000008,35.80280499999981,35.79620019999993,1,35.79860830000007,35.80280499999981,35.80280499999981,36.29637219999995,36.29637219999995,36.29031320000013,None,36.290365400000155,36.29038420000006,None,,,,,,,,,,,,,005,001,2026-01-21_17h02.26.484,NESC3137_EEG_experiment,,2025.1.1,144.40891985093305,2026-01-21 17h02.46.639468 -0400,
23,0,23,None,None,,,,,23,0,23,0,36.29637219999995,,,,,,,,,,,,,,,,,,,,36.29076840000016,36.29637219999995,37.16528359999984,37.157714999999826,2,37.159358599999905,37.16528359999984,37.16528359999984,37.65801969999984,37.65801969999984,37.651572000000215,None,37.65160359999982,37.65161799999987,None,,,,,,,,,,,,,005,001,2026-01-21_17h02.26.484,NESC3137_EEG_experiment,,2025.1.1,144.40891985093305,2026-01-21 17h02.46.639468 -0400,
24,0,24,up,None,0.46074540000017805,None,,,24,0,24,0,37.65801969999984,,,,,,,,,,,,,,,,,,,,37.65172170000005,37.65801969999984,38.23385529999996,38.228167400000075,1,38.229778400000214,38.23385529999996,38.23385529999996,38.727484900000036,38.727484900000036,38.721315700000105,up,38.721367999999984,38.7213855,None,0.46074540000017805,None,,,,,,,,,,,005,001,2026-01-21_17h02.26.484,NESC3137_EEG_experiment,,2025.1.1,144.40891985093305,2026-01-21 17h02.46.639468 -0400,
25,0,25,down,None,0.3546147000001838,None,,,25,0,25,0,38.727484900000036,,,,,,,,,,,,,,,,,,,,38.72150869999996,38.727484900000036,39.388027299999976,39.380426499999885,2,39.38197910000008,39.388027299999976,39.388027299999976,39.8804353999999,39.8804353999999,39.874224499999855,down,39.874267000000145,39.8742843,None,0.3546147000001838,None,,,,,,,,,,,005,001,2026-01-21_17h02.26.484,NESC3137_EEG_experiment,,2025.1.1,144.40891985093305,2026-01-21 17h02.46.639468 -0400,
26,0,26,up,None,0.32657060000019555,None,,,26,0,26,0,39.8804353999999,,,,,,,,,,,,,,,,,,,,39.87439739999991,39.8804353999999,40.624155599999995,40.61664920000021,1,40.618488999999954,40.624155599999995,40.624155599999995,41.11667070000021,41.11667070000021,41.109348800000134,up,41.10940440000013,41.109421399999974,None,0.32657060000019555,None,,,,,,,,,,,005,001,2026-01-21_17h02.26.484,NESC3137_EEG_experiment,,2025.1.1,144.40891985093305,2026-01-21 17h02.46.639468 -0400,
27,0,27,up,None,0.441057400000318,None,,,27,0,27,0,41.11667070000021,,,,,,,,,,,,,,,,,,,,41.109555999999884,41.11667070000021,41.9494138,41.94323029999987,2,41.945146900000054,41.9494138,41.9494138,42.44247029999997,42.44247029999997,42.43591900000001,up,42.4359800000002,42.43600779999997,None,0.441057400000318,None,,,,,,,,,,,005,001,2026-01-21_17h02.26.484,NESC3137_EEG_experiment,,2025.1.1,144.40891985093305,2026-01-21 17h02.46.639468 -0400,
28,0,28,None,None,,,,,28,0,28,0,42.44247029999997,,,,,,,,,,,,,,,,,,,,42.4361700999998,42.44247029999997,43.048354200000176,43.04025820000015,2,43.042020500000035,43.048354200000176,43.048354200000176,43.540344500000174,43.540344500000174,43.53324500000008,None,43.53328760000022,43.53330169999981,None,,,,,,,,,,,,,005,001,2026-01-21_17h02.26.484,NESC3137_EEG_experiment,,2025.1.1,144.40891985093305,2026-01-21 17h02.46.639468 -0400,
29,0,29,up,None,0.4575629000000845,None,,,29,0,29,0,43.540344500000174,,,,,,,,,,,,,,,,,,,,43.533406099999866,43.540344500000174,44.27708810000013,44.27062169999999,1,44.27235370000017,44.27708810000013,44.27708810000013,44.770426099999895,44.770426099999895,44.7627379999999,up,44.76277549999986,44.762788999999884,None,0.4575629000000845,None,,,,,,,,,,,005,001,2026-01-21_17h02.26.484,NESC3137_EEG_experiment,,2025.1.1,144.40891985093305,2026-01-21 17h02.46.639468 -0400,
30,0,30,down,None,0.4441850999996859,None,,,30,0,30,0,44.770426099999895,,,,,,,,,,,,,,,,,,,,44.76289050000014,44.770426099999895,45.29039590000002,45.28320089999988,2,45.28532829999995,45.29039590000002,45.29039590000002,45.7837684000001,45.7837684000001,45.77635899999996,down,45.7763946,45.776408300000185,None,0.4441850999996859,None,,,,,,,,,,,005,001,2026-01-21_17h02.26.484,NESC3137_EEG_experiment,,2025.1.1,144.40891985093305,2026-01-21 17h02.46.639468 -0400,
31,0,31,down,None,0.4160631999998259,None,,,31,0,31,0,45.7837684000001,,,,,,,,,,,,,,,,,,,,45.77650799999992,45.7837684000001,46.63122969999995,46.62382889999981,2,46.6257427999999,46.63122969999995,46.63122969999995,47.124777300000005,47.124777300000005,47.1168289000002,down,47.116879600000175,47.11690630000021,None,0.4160631999998259,None,,,,,,,,,,,005,001,2026-01-21_17h02.26.484,NESC3137_EEG_experiment,,2025.1.1,144.40891985093305,2026-01-21 17h02.46.639468 -0400,
32,0,32,down,None,0.4523703999998361,None,,,32,0,32,0,47.124777300000005,,,,,,,,,,,,,,,,,,,,47.117057999999815,47.124777300000005,47.72213079999983,47.71470989999989,2,47.7164557000001,47.72213079999983,47.72213079999983,48.214189199999964,48.214189199999964,48.20841729999984,down,48.208482399999866,48.208506699999816,None,0.4523703999998361,None,,,,,,,,,,,005,001,2026-01-21_17h02.26.484,NESC3137_EEG_experiment,,2025.1.1,144.40891985093305,2026-01-21 17h02.46.639468 -0400,
33,0,33,up,None,0.40113549999978204,None,,,33,0,33,0,48.214189199999964,,,,,,,,,,,,,,,,,,,,48.20864870000014,48.214189199999964,49.17375570000013,49.16551370000025,1,49.16714189999993,49.17375570000013,49.17375570000013,49.66556720000017,49.66556720000017,49.6594613000002,up,49.65949610000007,49.659509999999955,None,0.40113549999978204,None,,,,,,,,,,,005,001,2026-01-21_17h02.26.484,NESC3137_EEG_experiment,,2025.1.1,144.40891985093305,2026-01-21 17h02.46.639468 -0400,
34,0,34,down,None,0.4370697000003929,None,,,34,0,34,0,49.66556720000017,,,,,,,,,,,,,,,,,,,,49.65960720000021,49.66556720000017,50.19351310000002,50.18659609999986,2,50.1887370999998,50.19351310000002,50.19351310000002,50.6874886999999,50.6874886999999,50.680212799999936,down,50.6802646000001,50.68029220000017,None,0.4370697000003929,None,,,,,,,,,,,005,001,2026-01-21_17h02.26.484,NESC3137_EEG_experiment,,2025.1.1,144.40891985093305,2026-01-21 17h02.46.639468 -0400,
35,0,35,up,None,0.41065459999981613,None,,,35,0,35,0,50.6874886999999,,,,,,,,,,,,,,,,,,,,50.680446700000175,50.6874886999999,51.29187400000001,51.285707699999875,1,51.2874654000002,51.29187400000001,51.29187400000001,51.78496540000015,51.78496540000015,51.77716439999995,up,51.777212699999836,51.77722730000005,None,0.41065459999981613,None,,,,,,,,,,,005,001,2026-01-21_17h02.26.484,NESC3137_EEG_experiment,,2025.1.1,144.40891985093305,2026-01-21 17h02.46.639468 -0400,
36,0,36,down,None,0.36311320000004343,None,,,36,0,36,0,51.78496540000015,,,,,,,,,,,,,,,,,,,,51.777327199999945,51.78496540000015,52.347438299999794,52.34001720000015,1,52.34183979999989,52.347438299999794,52.347438299999794,52.839573199999904,52.839573199999904,52.83284030000004,down,52.83289139999988,52.83291820000022,None,0.36311320000004343,None,,,,,,,,,,,005,001,2026-01-21_17h02.26.484,NESC3137_EEG_experiment,,2025.1.1,144.40891985093305,2026-01-21 17h02.46.639468 -0400,
37,0,37,None,None,,,,,37,0,37,0,52.839573199999904,,,,,,,,,,,,,,,,,,,,52.83307109999987,52.839573199999904,53.77737509999997,53.77039560000003,1,53.772216800000024,53.77737509999997,53.77737509999997,54.27171009999984,54.27171009999984,54.263897799999995,None,54.2639350999998,54.263949799999864,None,,,,,,,,,,,,,005,001,2026-01-21_17h02.26.484,NESC3137_EEG_experiment,,2025.1.1,144.40891985093305,2026-01-21 17h02.46.639468 -0400,
38,0,38,down,None,0.46950790000028064,None,,,38,0,38,0,54.27171009999984,,,,,,,,,,,,,,,,,,,,54.26404700000012,54.27171009999984,55.25699829999985,55.25124559999995,2,55.25319579999996,55.25699829999985,55.25699829999985,55.74997080000003,55.74997080000003,55.744414400000096,down,55.74445220000007,55.744466199999806,None,0.46950790000028064,None,,,,,,,,,,,005,001,2026-01-21_17h02.26.484,NESC3137_EEG_experiment,,2025.1.1,144.40891985093305,2026-01-21 17h02.46.639468 -0400,
39,0,39,up,None,0.4716518999998698,None,,,39,0,39,0,55.74997080000003,,,,,,,,,,,,,,,,,,,,55.74457549999988,55.74997080000003,56.32740190000004,56.31992880000007,1,56.32157610000013,56.32740190000004,56.32740190000004,56.82042020000017,56.82042020000017,56.81273330000022,up,56.81277540000019,56.81278999999995,None,0.4716518999998698,None,,,,,,,,,,,005,001,2026-01-21_17h02.26.484,NESC3137_EEG_experiment,,2025.1.1,144.40891985093305,2026-01-21 17h02.46.639468 -0400,
40,0,40,down,None,0.4248014999998304,None,,,40,0,40,0,56.82042020000017,,,,,,,,,,,,,,,,,,,,56.812889299999824,56.82042020000017,57.44562850000011,57.438278999999966,2,57.440036599999985,57.44562850000011,57.44562850000011,57.93835450000006,57.93835450000006,57.93073830000003,down,57.930789600000026,57.930803000000196,None,0.4248014999998304,None,,,,,,,,,,,005,001,2026-01-21_17h02.26.484,NESC3137_EEG_experiment,,2025.1.1,144.40891985093305,2026-01-21 17h02.46.639468 -0400,
41,0,41,up,None,0.3750953000003392,None,,,41,0,41,0,57.93835450000006,,,,,,,,,,,,,,,,,,,,57.93089969999983,57.93835450000006,58.743383300000005,58.73707259999992,1,58.73912340000015,58.743383300000005,58.743383300000005,59.236167699999896,59.236167699999896,59.22965290000002,up,59.229687699999886,59.22970149999992,None,0.3750953000003392,None,,,,,,,,,,,005,001,2026-01-21_17h02.26.484,NESC3137_EEG_experiment,,2025.1.1,144.40891985093305,2026-01-21 17h02.46.639468 -0400,
42,0,42,down,None,0.42789319999974396,None,,,42,0,42,0,59.236167699999896,,,,,,,,,,,,,,,,,,,,59.229797699999835,59.236167699999896,60.19476160000022,60.18794220000018,2,60.18951220000008,60.19476160000022,60.19476160000022,60.68926760000022,60.68926760000022,60.68116689999988,down,60.68120069999986,60.681214499999896,None,0.42789319999974396,None,,,,,,,,,,,005,001,2026-01-21_17h02.26.484,NESC3137_EEG_experiment,,2025.1.1,144.40891985093305,2026-01-21 17h02.46.639468 -0400,
43,0,43,down,None,0.4572867000001679,None,,,43,0,43,0,60.68926760000022,,,,,,,,,,,,,,,,,,,,60.68131279999989,60.68926760000022,61.18923129999985,61.181309800000236,2,61.18278220000002,61.18923129999985,61.18923129999985,61.68101539999998,61.68101539999998,61.674257600000146,down,61.674298400000225,61.67431209999995,None,0.4572867000001679,None,,,,,,,,,,,005,001,2026-01-21_17h02.26.484,NESC3137_EEG_experiment,,2025.1.1,144.40891985093305,2026-01-21 17h02.46.639468 -0400,
44,0,44,down,None,0.43782359999977416,None,,,44,0,44,0,61.68101539999998,,,,,,,,,,,,,,,,,,,,61.67440940000006,61.68101539999998,62.21666469999991,62.209209799999826,2,62.211359899999934,62.21666469999991,62.21666469999991,62.70991129999993,62.70991129999993,62.70245569999997,down,62.70249049999984,62.70250560000022,None,0.43782359999977416,None,,,,,,,,,,,005,001,2026-01-21_17h02.26.484,NESC3137_EEG_experiment,,2025.1.1,144.40891985093305,2026-01-21 17h02.46.639468 -0400,
45,0,45,None,None,,,,,45,0,45,0,62.70991129999993,,,,,,,,,,,,,,,,,,,,62.70260390000021,62.70991129999993,63.63282040000013,63.62597300000016,1,63.62769560000015,63.63282040000013,63.63282040000013,64.12648619999982,64.12648619999982,64.11904229999982,None,64.11907190000011,64.11908769999991,None,,,,,,,,,,,,,005,001,2026-01-21_17h02.26.484,NESC3137_EEG_experiment,,2025.1.1,144.40891985093305,2026-01-21 17h02.46.639468 -0400,
46,0,46,down,None,0.37810269999999946,None,,,46,0,46,0,64.12648619999982,,,,,,,,,,,,,,,,,,,,64.119189,64.12648619999982,64.77239559999998,64.76540870000008,2,64.76711519999981,64.77239559999998,64.77239559999998,65.26503790000015,65.26503790000015,65.2588439000001,down,65.2588808999999,65.25889659999984,None,0.37810269999999946,None,,,,,,,,,,,005,001,2026-01-21_17h02.26.484,NESC3137_EEG_experiment,,2025.1.1,144.40891985093305,2026-01-21 17h02.46.639468 -0400,
47,0,47,up,None,0.41888969999990877,None,,,47,0,47,0,65.26503790000015,,,,,,,,,,,,,,,,,,,,65.25905199999988,65.26503790000015,66.04359879999993,66.03734880000002,1,66.03898509999999,66.04359879999993,66.04359879999993,66.53643169999987,66.53643169999987,66.52976850000005,up,66.52980770000022,66.52982229999998,None,0.41888969999990877,None,,,,,,,,,,,005,001,2026-01-21_17h02.26.484,NESC3137_EEG_experiment,,2025.1.1,144.40891985093305,2026-01-21 17h02.46.639468 -0400,
48,0,48,down,None,0.43915530000003855,None,,,48,0,48,0,66.53643169999987,,,,,,,,,,,,,,,,,,,,66.52992760000006,66.53643169999987,67.04989209999985,67.04395040000009,2,67.04625859999987,67.04989209999985,67.04989209999985,67.5438164000002,67.5438164000002,67.5362927000001,down,67.53632900000002,67.53634349999993,None,0.43915530000003855,None,,,,,,,,,,,005,001,2026-01-21_17h02.26.484,NESC3137_EEG_experiment,,2025.1.1,144.40891985093305,2026-01-21 17h02.46.639468 -0400,
49,0,49,down,None,0.4585789000002478,None,,,49,0,49,0,67.5438164000002,,,,,,,,,,,,,,,,,,,,67.5364513999998,67.5438164000002,68.30009180000025,68.29332239999985,2,68.29505210000025,68.30009180000025,68.30009180000025,68.79509589999998,68.79509589999998,68.78623990000006,down,68.78628590000017,68.78631200000018,None,0.4585789000002478,None,,,,,,,,,,,005,001,2026-01-21_17h02.26.484,NESC3137_EEG_experiment,,2025.1.1,144.40891985093305,2026-01-21 17h02.46.639468 -0400,
50,0,50,down,None,0.4092361000002711,None,,,50,0,50,0,68.79509589999998,,,,,,,,,,,,,,,,,,,,68.78647249999995,68.79509589999998,69.66138850000016,69.65459680000004,2,69.65631179999991,69.66138850000016,69.66138850000016,70.15460440000015,70.15460440000015,70.14764240000022,down,70.14769370000022,70.14771960000007,None,0.4092361000002711,None,,,,,,,,,,,005,001,2026-01-21_17h02.26.484,NESC3137_EEG_experiment,,2025.1.1,144.40891985093305,2026-01-21 17h02.46.639468 -0400,
51,0,51,down,None,0.43560500000012325,None,,,51,0,51,0,70.15460440000015,,,,,,,,,,,,,,,,,,,,70.14787320000005,70.15460440000015,71.1071935,71.09892350000018,2,71.1005441000002,71.1071935,71.1071935,71.60018189999982,71.60018189999982,71.59222129999989,down,71.5922559999999,71.59226949999993,None,0.43560500000012325,None,,,,,,,,,,,005,001,2026-01-21_17h02.26.484,NESC3137_EEG_experiment,,2025.1.1,144.40891985093305,2026-01-21 17h02.46.639468 -0400,
52,0,52,up,None,0.4450147000002289,None,,,52,0,52,0,71.60018189999982,,,,,,,,,,,,,,,,,,,,71.59237930000018,71.60018189999982,72.16947690000006,72.16163599999982,1,72.16323650000004,72.16947690000006,72.16947690000006,72.66279470000018,72.66279470000018,72.65501339999992,up,72.65506589999995,72.65509179999981,None,0.4450147000002289,None,,,,,,,,,,,005,001,2026-01-21_17h02.26.484,NESC3137_EEG_experiment,,2025.1.1,144.40891985093305,2026-01-21 17h02.46.639468 -0400,
53,0,53,down,None,0.47445410000000265,None,,,53,0,53,0,72.66279470000018,,,,,,,,,,,,,,,,,,,,72.65524540000024,72.66279470000018,73.51601440000013,73.51028690000021,2,73.51236830000016,73.51601440000013,73.51601440000013,74.00899260000006,74.00899260000006,74.00255650000008,down,74.0025940999999,74.0026226,None,0.47445410000000265,None,,,,,,,,,,,005,001,2026-01-21_17h02.26.484,NESC3137_EEG_experiment,,2025.1.1,144.40891985093305,2026-01-21 17h02.46.639468 -0400,
54,0,54,up,None,0.3988920000001599,None,,,54,0,54,0,74.00899260000006,,,,,,,,,,,,,,,,,,,,74.00278040000012,74.00899260000006,74.96784690000004,74.96145729999989,2,74.9631316,74.96784690000004,74.96784690000004,75.46055680000018,75.46055680000018,75.45414680000022,up,75.45418310000014,75.45420039999999,None,0.3988920000001599,None,,,,,,,,,,,005,001,2026-01-21_17h02.26.484,NESC3137_EEG_experiment,,2025.1.1,144.40891985093305,2026-01-21 17h02.46.639468 -0400,
55,0,55,up,None,0.45927830000027825,None,,,55,0,55,0,75.46055680000018,,,,,,,,,,,,,,,,,,,,75.45430699999997,75.46055680000018,76.26720509999996,76.25952619999998,1,76.2616235999999,76.26720509999996,76.26720509999996,76.76070449999997,76.76070449999997,76.75348369999983,up,76.75352049999992,76.75353610000002,None,0.45927830000027825,None,,,,,,,,,,,005,001,2026-01-21_17h02.26.484,NESC3137_EEG_experiment,,2025.1.1,144.40891985093305,2026-01-21 17h02.46.639468 -0400,
56,0,56,None,None,,,,,56,0,56,0,76.76070449999997,,,,,,,,,,,,,,,,,,,,76.75363860000016,76.76070449999997,77.37796059999982,77.37210259999983,1,77.3736729000002,77.37796059999982,77.37796059999982,77.87058370000022,77.87058370000022,77.8639733,None,77.86401539999997,77.86404149999998,None,,,,,,,,,,,,,005,001,2026-01-21_17h02.26.484,NESC3137_EEG_experiment,,2025.1.1,144.40891985093305,2026-01-21 17h02.46.639468 -0400,
57,0,57,down,None,0.3758800999999039,None,,,57,0,57,0,77.87058370000022,,,,,,,,,,,,,,,,,,,,77.86419149999983,77.87058370000022,78.55860280000024,78.5515604000002,2,78.55333289999999,78.55860280000024,78.55860280000024,79.05280850000008,79.05280850000008,79.04453439999997,down,79.04456829999981,79.04458190000014,None,0.3758800999999039,None,,,,,,,,,,,005,001,2026-01-21_17h02.26.484,NESC3137_EEG_experiment,,2025.1.1,144.40891985093305,2026-01-21 17h02.46.639468 -0400,
58,0,58,None,None,,,,,58,0,58,0,79.05280850000008,,,,,,,,,,,,,,,,,,,,79.04469269999981,79.05280850000008,79.87153949999993,79.8641778000001,1,79.86578580000014,79.87153949999993,79.87153949999993,80.36509999999998,80.36509999999998,80.35677709999982,None,80.35682679999991,80.35686059999989,None,,,,,,,,,,,,,005,001,2026-01-21_17h02.26.484,NESC3137_EEG_experiment,,2025.1.1,144.40891985093305,2026-01-21 17h02.46.639468 -0400,
59,0,59,None,None,,,,,59,0,59,0,80.36509999999998,,,,,,,,,,,,,,,,,,,,80.3570595000001,80.36509999999998,80.96083200000021,80.95385579999993,1,80.95544090000021,80.96083200000021,80.96083200000021,81.45479590000014,81.45479590000014,81.44770470000003,None,81.44773510000005,81.4477496999998,None,,,,,,,,,,,,,005,001,2026-01-21_17h02.26.484,NESC3137_EEG_experiment,,2025.1.1,144.40891985093305,2026-01-21 17h02.46.639468 -0400,
60,0,60,down,None,0.45466780000015206,None,,,60,0,60,0,81.45479590000014,,,,,,,,,,,,,,,,,,,,81.4478967,81.45479590000014,81.96794279999995,81.96114249999982,2,81.96299970000018,81.96794279999995,81.96794279999995,82.46192780000001,82.46192780000001,82.4546048000002,down,82.45466230000011,82.45468879999999,None,0.45466780000015206,None,,,,,,,,,,,005,001,2026-01-21_17h02.26.484,NESC3137_EEG_experiment,,2025.1.1,144.40891985093305,2026-01-21 17h02.46.639468 -0400,
61,0,61,None,None,,,,,61,0,61,0,82.46192780000001,,,,,,,,,,,,,,,,,,,,82.45488019999993,82.46192780000001,83.44719320000013,83.44052139999985,2,83.44243180000012,83.44719320000013,83.44719320000013,83.94123709999985,83.94123709999985,83.93511990000025,None,83.9351528000002,83.93516959999988,None,,,,,,,,,,,,,005,001,2026-01-21_17h02.26.484,NESC3137_EEG_experiment,,2025.1.1,144.40891985093305,2026-01-21 17h02.46.639468 -0400,
62,0,62,None,None,,,,,62,0,62,0,83.94123709999985,,,,,,,,,,,,,,,,,,,,83.93527829999994,83.94123709999985,84.45566210000015,84.44793770000024,2,84.44956460000003,84.45566210000015,84.45566210000015,84.94798679999985,84.94798679999985,84.94095520000019,None,84.94098680000025,84.94100200000003,None,,,,,,,,,,,,,005,001,2026-01-21_17h02.26.484,NESC3137_EEG_experiment,,2025.1.1,144.40891985093305,2026-01-21 17h02.46.639468 -0400,
63,0,63,None,None,,,,,63,0,63,0,84.94798679999985,,,,,,,,,,,,,,,,,,,,84.9411028999998,84.94798679999985,85.6918212999999,85.68366370000012,1,85.68530069999997,85.6918212999999,85.6918212999999,86.18461579999985,86.18461579999985,86.17855959999997,None,86.17859249999992,86.1786075,None,,,,,,,,,,,,,005,001,2026-01-21_17h02.26.484,NESC3137_EEG_experiment,,2025.1.1,144.40891985093305,2026-01-21 17h02.46.639468 -0400,
64,0,64,None,None,,,,,64,0,64,0,86.18461579999985,,,,,,,,,,,,,,,,,,,,86.17871670000022,86.18461579999985,87.05210660000012,87.0462238,1,87.04856000000018,87.05210660000012,87.05210660000012,87.54561839999997,87.54561839999997,87.53956500000004,None,87.53972169999997,87.539761,None,,,,,,,,,,,,,005,001,2026-01-21_17h02.26.484,NESC3137_EEG_experiment,,2025.1.1,144.40891985093305,2026-01-21 17h02.46.639468 -0400,
65,0,65,None,None,,,,,65,0,65,0,87.54561839999997,,,,,,,,,,,,,,,,,,,,87.53993609999998,87.54561839999997,88.40039680000018,88.39244039999994,1,88.39408430000003,88.40039680000018,88.40039680000018,88.89244989999997,88.89244989999997,88.88563299999987,None,88.88567590000002,88.8857025000002,None,,,,,,,,,,,,,005,001,2026-01-21_17h02.26.484,NESC3137_EEG_experiment,,2025.1.1,144.40891985093305,2026-01-21 17h02.46.639468 -0400,
66,0,66,None,None,,,,,66,0,66,0,88.89244989999997,,,,,,,,,,,,,,,,,,,,88.88585340000009,88.89244989999997,89.71246209999981,89.70566469999994,1,89.70778470000005,89.71246209999981,89.71246209999981,90.20643669999981,90.20643669999981,90.19821640000009,None,90.1982465000001,90.1982622999999,None,,,,,,,,,,,,,005,001,2026-01-21_17h02.26.484,NESC3137_EEG_experiment,,2025.1.1,144.40891985093305,2026-01-21 17h02.46.639468 -0400,
67,0,67,up,None,0.3685515000001942,None,,,67,0,67,0,90.20643669999981,,,,,,,,,,,,,,,,,,,,90.1983624999998,90.20643669999981,90.99013120000018,90.98325449999993,1,90.98518520000016,90.99013120000018,90.99013120000018,91.48338240000021,91.48338240000021,91.47654490000014,up,91.47659560000011,91.47661310000012,None,0.3685515000001942,None,,,,,,,,,,,005,001,2026-01-21_17h02.26.484,NESC3137_EEG_experiment,,2025.1.1,144.40891985093305,2026-01-21 17h02.46.639468 -0400,
68,0,68,None,None,,,,,68,0,68,0,91.48338240000021,,,,,,,,,,,,,,,,,,,,91.47675049999998,91.48338240000021,92.0389325000001,92.03338140000005,2,92.0353556,92.0389325000001,92.0389325000001,92.5318256999999,92.5318256999999,92.52539089999982,None,92.52542059999996,92.52543550000019,None,,,,,,,,,,,,,005,001,2026-01-21_17h02.26.484,NESC3137_EEG_experiment,,2025.1.1,144.40891985093305,2026-01-21 17h02.46.639468 -0400,
69,0,69,None,None,,,,,69,0,69,0,92.5318256999999,,,,,,,,,,,,,,,,,,,,92.52552749999995,92.5318256999999,93.35135500000024,93.34443710000005,1,93.34641139999985,93.35135500000024,93.35135500000024,93.84421729999985,93.84421729999985,93.83881169999995,None,93.83884470000021,93.83885959999998,None,,,,,,,,,,,,,005,001,2026-01-21_17h02.26.484,NESC3137_EEG_experiment,,2025.1.1,144.40891985093305,2026-01-21 17h02.46.639468 -0400,
70,0,70,None,None,,,,,70,0,70,0,93.84421729999985,,,,,,,,,,,,,,,,,,,,93.83897569999999,93.84421729999985,94.63669299999992,94.62974050000003,1,94.63173360000019,94.63669299999992,94.63669299999992,95.12938380000014,95.12938380000014,95.12268929999982,None,95.12272220000023,95.12273700000014,None,,,,,,,,,,,,,005,001,2026-01-21_17h02.26.484,NESC3137_EEG_experiment,,2025.1.1,144.40891985093305,2026-01-21 17h02.46.639468 -0400,
71,0,71,None,None,,,,,71,0,71,0,95.12938380000014,,,,,,,,,,,,,,,,,,,,95.12284309999995,95.12938380000014,95.85865300000023,95.85281940000004,2,95.85487899999998,95.85865300000023,95.85865300000023,96.35263070000019,96.35263070000019,96.34497360000023,None,96.3450026999999,96.34501600000021,None,,,,,,,,,,,,,005,001,2026-01-21_17h02.26.484,NESC3137_EEG_experiment,,2025.1.1,144.40891985093305,2026-01-21 17h02.46.639468 -0400,
72,0,72,up,None,0.437006200000269,None,,,72,0,72,0,96.35263070000019,,,,,,,,,,,,,,,,,,,,96.34511109999994,96.35263070000019,96.87356200000022,96.86694970000008,1,96.8686846999999,96.87356200000022,96.87356200000022,97.36569270000018,97.36569270000018,97.35995379999986,up,97.35999040000024,97.36000469999999,None,0.437006200000269,None,,,,,,,,,,,005,001,2026-01-21_17h02.26.484,NESC3137_EEG_experiment,,2025.1.1,144.40891985093305,2026-01-21 17h02.46.639468 -0400,
73,0,73,up,None,0.44360990000041056,None,,,73,0,73,0,97.36569270000018,,,,,,,,,,,,,,,,,,,,97.36010910000005,97.36569270000018,97.8669319999999,97.85885259999986,1,97.86049719999983,97.8669319999999,97.8669319999999,98.36034629999995,98.36034629999995,98.35200829999985,up,98.35204590000012,98.35205959999985,None,0.44360990000041056,None,,,,,,,,,,,005,001,2026-01-21_17h02.26.484,NESC3137_EEG_experiment,,2025.1.1,144.40891985093305,2026-01-21 17h02.46.639468 -0400,
74,0,74,None,None,,,,,74,0,74,0,98.36034629999995,,,,,,,,,,,,,,,,,,,,98.3521738999998,98.36034629999995,99.34657530000004,99.33884309999985,2,99.34028130000024,99.34657530000004,99.34657530000004,99.83814840000014,99.83814840000014,99.83159410000007,None,99.83162420000008,99.83163819999982,None,,,,,,,,,,,,,005,001,2026-01-21_17h02.26.484,NESC3137_EEG_experiment,,2025.1.1,144.40891985093305,2026-01-21 17h02.46.639468 -0400,
75,0,75,up,None,0.35509170000023005,None,,,75,0,75,0,99.83814840000014,,,,,,,,,,,,,,,,,,,,99.83173889999989,99.83814840000014,100.65925740000012,100.65135539999983,1,100.65292069999987,100.65925740000012,100.65925740000012,101.15101920000006,101.15101920000006,101.14522179999994,up,101.14529979999998,101.14532379999991,None,0.35509170000023005,None,,,,,,,,,,,005,001,2026-01-21_17h02.26.484,NESC3137_EEG_experiment,,2025.1.1,144.40891985093305,2026-01-21 17h02.46.639468 -0400,
76,0,76,None,None,,,,,76,0,76,0,101.15101920000006,,,,,,,,,,,,,,,,,,,,101.14556760000005,101.15101920000006,101.94290009999986,101.93575580000015,2,101.93752880000011,101.94290009999986,101.94290009999986,102.43581219999987,102.43581219999987,102.42904570000019,None,102.42910110000003,102.4291290000001,None,,,,,,,,,,,,,005,001,2026-01-21_17h02.26.484,NESC3137_EEG_experiment,,2025.1.1,144.40891985093305,2026-01-21 17h02.46.639468 -0400,
77,0,77,None,None,,,,,77,0,77,0,102.43581219999987,,,,,,,,,,,,,,,,,,,,102.42928960000017,102.43581219999987,103.17322439999998,103.16637949999995,2,103.16806339999994,103.17322439999998,103.17322439999998,103.66611950000015,103.66611950000015,103.65832279999995,None,103.65836609999997,103.65839330000017,None,,,,,,,,,,,,,005,001,2026-01-21_17h02.26.484,NESC3137_EEG_experiment,,2025.1.1,144.40891985093305,2026-01-21 17h02.46.639468 -0400,
78,0,78,up,None,0.4515738000000056,None,,,78,0,78,0,103.66611950000015,,,,,,,,,,,,,,,,,,,,103.65854739999986,103.66611950000015,104.55499629999986,104.54709460000004,1,104.54877840000017,104.55499629999986,104.55499629999986,105.0473406000001,105.0473406000001,105.04169559999991,up,105.04176569999981,105.04179599999998,None,0.4515738000000056,None,,,,,,,,,,,005,001,2026-01-21_17h02.26.484,NESC3137_EEG_experiment,,2025.1.1,144.40891985093305,2026-01-21 17h02.46.639468 -0400,
79,0,79,None,None,,,,,79,0,79,0,105.0473406000001,,,,,,,,,,,,,,,,,,,,105.04200880000008,105.0473406000001,105.9155154,105.90935239999999,1,105.91140029999997,105.9155154,105.9155154,106.4086357000001,106.4086357000001,106.40184200000022,None,106.40188510000007,106.40191050000021,None,,,,,,,,,,,,,005,001,2026-01-21_17h02.26.484,NESC3137_EEG_experiment,,2025.1.1,144.40891985093305,2026-01-21 17h02.46.639468 -0400,
80,0,80,None,None,,,,,80,0,80,0,106.4086357000001,,,,,,,,,,,,,,,,,,,,106.40206940000007,106.4086357000001,107.12385110000014,107.11816420000014,1,107.12085969999998,107.12385110000014,107.12385110000014,107.61701119999998,107.61701119999998,107.610408,None,107.61044840000022,107.61047310000004,None,,,,,,,,,,,,,005,001,2026-01-21_17h02.26.484,NESC3137_EEG_experiment,,2025.1.1,144.40891985093305,2026-01-21 17h02.46.639468 -0400,
81,0,81,down,None,0.4355972000003021,None,,,81,0,81,0,107.61701119999998,,,,,,,,,,,,,,,,,,,,107.61061310000014,107.61701119999998,108.56292829999984,108.5550932000001,2,108.5566044000002,108.56292829999984,108.56292829999984,109.05466810000007,109.05466810000007,109.04805279999982,down,109.04809969999997,109.04811310000014,None,0.4355972000003021,None,,,,,,,,,,,005,001,2026-01-21_17h02.26.484,NESC3137_EEG_experiment,,2025.1.1,144.40891985093305,2026-01-21 17h02.46.639468 -0400,
82,0,82,None,None,,,,,82,0,82,0,109.05466810000007,,,,,,,,,,,,,,,,,,,,109.04822130000002,109.05466810000007,109.9102812000001,109.90304620000006,2,109.90456330000006,109.9102812000001,109.9102812000001,110.40366610000001,110.40366610000001,110.39519629999995,None,110.39522530000022,110.39523869999994,None,,,,,,,,,,,,,005,001,2026-01-21_17h02.26.484,NESC3137_EEG_experiment,,2025.1.1,144.40891985093305,2026-01-21 17h02.46.639468 -0400,
83,0,83,None,None,,,,,83,0,83,0,110.40366610000001,,,,,,,,,,,,,,,,,,,,110.3953348,110.40366610000001,110.92403000000013,110.9177110999999,2,110.92040839999981,110.92403000000013,110.92403000000013,111.41614269999991,111.41614269999991,111.40924529999984,None,111.40927439999996,111.40928799999983,None,,,,,,,,,,,,,005,001,2026-01-21_17h02.26.484,NESC3137_EEG_experiment,,2025.1.1,144.40891985093305,2026-01-21 17h02.46.639468 -0400,
84,0,84,down,None,0.3863680999997996,None,,,84,0,84,0,111.41614269999991,,,,,,,,,,,,,,,,,,,,111.4094025999998,111.41614269999991,112.18818099999999,112.18177590000005,2,112.18358970000008,112.18818099999999,112.18818099999999,112.68114670000023,112.68114670000023,112.67330919999995,down,112.67334320000009,112.67335670000011,None,0.3863680999997996,None,,,,,,,,,,,005,001,2026-01-21_17h02.26.484,NESC3137_EEG_experiment,,2025.1.1,144.40891985093305,2026-01-21 17h02.46.639468 -0400,
85,0,85,up,None,0.3659522000002653,None,,,85,0,85,0,112.68114670000023,,,,,,,,,,,,,,,,,,,,112.67345909999995,112.68114670000023,113.62479380000013,113.61811790000002,1,113.61989499999981,113.62479380000013,113.62479380000013,114.1177861000001,114.1177861000001,114.11149729999988,up,114.11153439999998,114.11154880000004,None,0.3659522000002653,None,,,,,,,,,,,005,001,2026-01-21_17h02.26.484,NESC3137_EEG_experiment,,2025.1.1,144.40891985093305,2026-01-21 17h02.46.639468 -0400,
86,0,86,down,None,0.44214959999999337,None,,,86,0,86,0,114.1177861000001,,,,,,,,,,,,,,,,,,,,114.11165250000022,114.1177861000001,114.70836109999982,114.70222019999983,2,114.70428949999996,114.70836109999982,114.70836109999982,115.20231000000013,115.20231000000013,115.19475319999992,down,115.19479230000024,115.19480599999997,None,0.44214959999999337,None,,,,,,,,,,,005,001,2026-01-21_17h02.26.484,NESC3137_EEG_experiment,,2025.1.1,144.40891985093305,2026-01-21 17h02.46.639468 -0400,
87,0,87,up,None,0.43546420000029684,None,,,87,0,87,0,115.20231000000013,,,,,,,,,,,,,,,,,,,,115.19491440000002,115.20231000000013,115.72304900000017,115.7152243999999,1,115.71683140000005,115.72304900000017,115.72304900000017,116.21531809999988,116.21531809999988,116.21059160000004,up,116.2106303999999,116.21064560000013,None,0.43546420000029684,None,,,,,,,,,,,005,001,2026-01-21_17h02.26.484,NESC3137_EEG_experiment,,2025.1.1,144.40891985093305,2026-01-21 17h02.46.639468 -0400,
88,0,88,None,None,,,,,88,0,88,0,116.21531809999988,,,,,,,,,,,,,,,,,,,,116.21075530000007,116.21531809999988,116.7582851000002,116.75142920000008,1,116.75370669999984,116.7582851000002,116.7582851000002,117.25018330000012,117.25018330000012,117.24325739999995,None,117.24328730000025,117.24330069999996,None,,,,,,,,,,,,,005,001,2026-01-21_17h02.26.484,NESC3137_EEG_experiment,,2025.1.1,144.40891985093305,2026-01-21 17h02.46.639468 -0400,
89,0,89,None,None,,,,,89,0,89,0,117.25018330000012,,,,,,,,,,,,,,,,,,,,117.24339629999986,117.25018330000012,118.23757350000005,118.23068710000007,1,118.23253840000007,118.23757350000005,118.23757350000005,118.7301966,118.7301966,118.72274580000021,None,118.72278740000002,118.72281280000016,None,,,,,,,,,,,,,005,001,2026-01-21_17h02.26.484,NESC3137_EEG_experiment,,2025.1.1,144.40891985093305,2026-01-21 17h02.46.639468 -0400,
90,0,90,up,None,0.45680970000012167,None,,,90,0,90,0,118.7301966,,,,,,,,,,,,,,,,,,,,118.72296310000002,118.7301966,119.60575530000006,119.59799740000017,1,119.59996719999981,119.60575530000006,119.60575530000006,120.0979167999999,120.0979167999999,120.09209400000009,up,120.0921742999999,120.09220839999989,None,0.45680970000012167,None,,,,,,,,,,,005,001,2026-01-21_17h02.26.484,NESC3137_EEG_experiment,,2025.1.1,144.40891985093305,2026-01-21 17h02.46.639468 -0400,
91,0,91,None,None,,,,,91,0,91,0,120.0979167999999,,,,,,,,,,,,,,,,,,,,120.09237750000011,120.0979167999999,121.07714149999993,121.07115750000003,1,121.07284660000005,121.07714149999993,121.07714149999993,121.57116240000005,121.57116240000005,121.56477899999982,None,121.56484499999988,121.56486080000013,None,,,,,,,,,,,,,005,001,2026-01-21_17h02.26.484,NESC3137_EEG_experiment,,2025.1.1,144.40891985093305,2026-01-21 17h02.46.639468 -0400,
92,0,92,None,None,,,,,92,0,92,0,121.57116240000005,,,,,,,,,,,,,,,,,,,,121.5650056999998,121.57116240000005,122.43251240000018,122.42530170000009,1,122.42728709999983,122.43251240000018,122.43251240000018,122.92474450000009,122.92474450000009,122.9184937,None,122.91855990000022,122.91857540000001,None,,,,,,,,,,,,,005,001,2026-01-21_17h02.26.484,NESC3137_EEG_experiment,,2025.1.1,144.40891985093305,2026-01-21 17h02.46.639468 -0400,
93,0,93,None,None,,,,,93,0,93,0,122.92474450000009,,,,,,,,,,,,,,,,,,,,122.91869630000019,122.92474450000009,123.46651049999991,123.45937550000008,1,123.4615318000001,123.46651049999991,123.46651049999991,123.96035429999984,123.96035429999984,123.95242330000019,None,123.95245290000003,123.95246610000004,None,,,,,,,,,,,,,005,001,2026-01-21_17h02.26.484,NESC3137_EEG_experiment,,2025.1.1,144.40891985093305,2026-01-21 17h02.46.639468 -0400,
94,0,94,up,None,0.3939292000000023,None,,,94,0,94,0,123.96035429999984,,,,,,,,,,,,,,,,,,,,123.95256430000018,123.96035429999984,124.71655250000003,124.70973550000008,1,124.71173809999982,124.71655250000003,124.71655250000003,125.21042249999982,125.21042249999982,125.2040579999998,up,125.20411999999988,125.20413770000005,None,0.3939292000000023,None,,,,,,,,,,,005,001,2026-01-21_17h02.26.484,NESC3137_EEG_experiment,,2025.1.1,144.40891985093305,2026-01-21 17h02.46.639468 -0400,
95,0,95,up,None,0.3250361000000339,None,,,95,0,95,0,125.21042249999982,,,,,,,,,,,,,,,,,,,,125.20424170000024,125.21042249999982,125.89767029999985,125.8902321999999,1,125.89185120000002,125.89767029999985,125.89767029999985,126.39141599999994,126.39141599999994,126.38370080000004,up,126.38374990000011,126.38376370000015,None,0.3250361000000339,None,,,,,,,,,,,005,001,2026-01-21_17h02.26.484,NESC3137_EEG_experiment,,2025.1.1,144.40891985093305,2026-01-21 17h02.46.639468 -0400,
96,0,96,down,None,0.4077164000000266,None,,,96,0,96,0,126.39141599999994,,,,,,,,,,,,,,,,,,,,126.38386549999996,126.39141599999994,127.28677560000006,127.27998340000022,2,127.28187609999986,127.28677560000006,127.28677560000006,127.78032960000019,127.78032960000019,127.77245240000002,down,127.77248610000015,127.77249949999987,None,0.4077164000000266,None,,,,,,,,,,,005,001,2026-01-21_17h02.26.484,NESC3137_EEG_experiment,,2025.1.1,144.40891985093305,2026-01-21 17h02.46.639468 -0400,
97,0,97,None,None,,,,,97,0,97,0,127.78032960000019,,,,,,,,,,,,,,,,,,,,127.77259760000015,127.78032960000019,128.61989540000013,128.61348129999988,2,128.61531109999987,128.61989540000013,128.61989540000013,129.11274150000008,129.11274150000008,129.10666390000006,None,129.10672310000018,129.10674900000004,None,,,,,,,,,,,,,005,001,2026-01-21_17h02.26.484,NESC3137_EEG_experiment,,2025.1.1,144.40891985093305,2026-01-21 17h02.46.639468 -0400,
98,0,98,up,None,0.4728832999999213,None,,,98,0,98,0,129.11274150000008,,,,,,,,,,,,,,,,,,,,129.10685479999984,129.11274150000008,129.93361000000004,129.92549559999998,1,129.92697279999993,129.93361000000004,129.93361000000004,130.42620339999985,130.42620339999985,130.41885289999982,up,130.41889489999994,130.41891130000022,None,0.4728832999999213,None,,,,,,,,,,,005,001,2026-01-21_17h02.26.484,NESC3137_EEG_experiment,,2025.1.1,144.40891985093305,2026-01-21 17h02.46.639468 -0400,
99,0,99,None,None,,,,,99,0,99,0,130.42620339999985,,,,,,,,,,,,,,,,,,,,130.4190196999998,130.42620339999985,131.1969935000002,131.1898282000002,1,131.19171300000016,131.1969935000002,131.1969935000002,131.68970639999998,131.68970639999998,131.68295790000002,None,131.68298670000013,131.68300009999984,None,,,,,,,,,,,,,005,001,2026-01-21_17h02.26.484,NESC3137_EEG_experiment,,2025.1.1,144.40891985093305,2026-01-21 17h02.46.639468 -0400,
100,0,100,None,None,,,,,100,0,100,0,131.68970639999998,,,,,,,,,,,,,,,,,,,,131.68310389999988,131.68970639999998,132.67707810000002,132.670251,2,132.67199630000005,132.67707810000002,132.67707810000002,133.16902130000017,133.16902130000017,133.16306269999995,None,133.16312729999981,133.1631483000001,None,,,,,,,,,,,,,005,001,2026-01-21_17h02.26.484,NESC3137_EEG_experiment,,2025.1.1,144.40891985093305,2026-01-21 17h02.46.639468 -0400,
101,0,101,None,None,,,,,101,0,101,0,133.16902130000017,,,,,,,,,,,,,,,,,,,,133.1633437999999,133.16902130000017,134.0927117000001,134.08613700000024,1,134.0877744999998,134.0927117000001,134.0927117000001,134.5856819999999,134.5856819999999,134.57912620000025,None,134.5791577,134.5791723000002,None,,,,,,,,,,,,,005,001,2026-01-21_17h02.26.484,NESC3137_EEG_experiment,,2025.1.1,144.40891985093305,2026-01-21 17h02.46.639468 -0400,
102,0,102,None,None,,,,,102,0,102,0,134.5856819999999,,,,,,,,,,,,,,,,,,,,134.57927610000024,134.5856819999999,135.53050840000014,135.52338469999995,1,135.5248614000002,135.53050840000014,135.53050840000014,136.02497110000013,136.02497110000013,136.0172378000002,None,136.01726839999992,136.01728270000012,None,,,,,,,,,,,,,005,001,2026-01-21_17h02.26.484,NESC3137_EEG_experiment,,2025.1.1,144.40891985093305,2026-01-21 17h02.46.639468 -0400,
103,0,103,None,None,,,,,103,0,103,0,136.02497110000013,,,,,,,,,,,,,,,,,,,,136.01738430000023,136.02497110000013,136.7944808000002,136.7876796999999,2,136.78973309999992,136.7944808000002,136.7944808000002,137.28746339999998,137.28746339999998,137.28082089999998,None,137.28086339999982,137.2808887000001,None,,,,,,,,,,,,,005,001,2026-01-21_17h02.26.484,NESC3137_EEG_experiment,,2025.1.1,144.40891985093305,2026-01-21 17h02.46.639468 -0400,
104,0,104,None,None,,,,,104,0,104,0,137.28746339999998,,,,,,,,,,,,,,,,,,,,137.2810496000002,137.28746339999998,137.8929493999999,137.88499180000008,2,137.88670550000006,137.8929493999999,137.8929493999999,138.38480010000012,138.38480010000012,138.3780440999999,None,138.37807359999988,138.37808799999993,None,,,,,,,,,,,,,005,001,2026-01-21_17h02.26.484,NESC3137_EEG_experiment,,2025.1.1,144.40891985093305,2026-01-21 17h02.46.639468 -0400,
105,0,105,None,None,,,,,105,0,105,0,138.38480010000012,,,,,,,,,,,,,,,,,,,,138.37818990000005,138.38480010000012,138.95440420000023,138.9479940000001,1,138.94998269999996,138.95440420000023,138.95440420000023,139.44741280000017,139.44741280000017,139.4408426,None,139.44088620000002,139.44091370000024,None,,,,,,,,,,,,,005,001,2026-01-21_17h02.26.484,NESC3137_EEG_experiment,,2025.1.1,144.40891985093305,2026-01-21 17h02.46.639468 -0400,
106,0,106,None,None,,,,,106,0,106,0,139.44741280000017,,,,,,,,,,,,,,,,,,,,139.44106999999985,139.44741280000017,139.9556080000002,139.94920850000017,2,139.95082200000024,139.9556080000002,139.9556080000002,140.44820500000014,140.44820500000014,140.44115599999986,None,140.44120169999997,140.44122180000022,None,,,,,,,,,,,,,005,001,2026-01-21_17h02.26.484,NESC3137_EEG_experiment,,2025.1.1,144.40891985093305,2026-01-21 17h02.46.639468 -0400,
107,0,107,None,None,,,,,107,0,107,0,140.44820500000014,,,,,,,,,,,,,,,,,,,,140.4413396,140.44820500000014,141.26020879999987,141.2545825000002,2,141.2566455000001,141.26020879999987,141.26020879999987,141.75346100000024,141.75346100000024,141.74755400000004,None,141.74758740000016,141.74760640000022,None,,,,,,,,,,,,,005,001,2026-01-21_17h02.26.484,NESC3137_EEG_experiment,,2025.1.1,144.40891985093305,2026-01-21 17h02.46.639468 -0400,
108,0,108,None,None,,,,,108,0,108,0,141.75346100000024,,,,,,,,,,,,,,,,,,,,141.7477183000001,141.75346100000024,142.73972319999984,142.7333039,2,142.73536830000012,142.73972319999984,142.73972319999984,143.23268159999998,143.23268159999998,143.22600150000017,None,143.2260326999999,143.22604649999994,None,,,,,,,,,,,,,005,001,2026-01-21_17h02.26.484,NESC3137_EEG_experiment,,2025.1.1,144.40891985093305,2026-01-21 17h02.46.639468 -0400,
109,0,109,None,None,,,,,109,0,109,0,143.23268159999998,,,,,,,,,,,,,,,,,,,,143.22615039999982,143.23268159999998,144.15031120000003,144.1425776000001,1,144.14412300000004,144.15031120000003,144.15031120000003,144.6426993,144.6426993,144.63602750000018,None,144.6360580999999,144.6360727000001,None,,,,,,,,,,,,,005,001,2026-01-21_17h02.26.484,NESC3137_EEG_experiment,,2025.1.1,144.40891985093305,2026-01-21 17h02.46.639468 -0400,
110,0,110,None,None,,,,,110,0,110,0,144.6426993,,,,,,,,,,,,,,,,,,,,144.6361751999998,144.6426993,145.28165450000006,145.27463269999998,1,145.27642939999987,145.28165450000006,145.28165450000006,145.77572139999984,145.77572139999984,145.76819969999997,None,145.76823250000007,145.7682466000001,None,,,,,,,,,,,,,005,001,2026-01-21_17h02.26.484,NESC3137_EEG_experiment,,2025.1.1,144.40891985093305,2026-01-21 17h02.46.639468 -0400,
111,0,111,None,None,,,,,111,0,111,0,145.77572139999984,,,,,,,,,,,,,,,,,,,,145.76835429999983,145.77572139999984,146.39989980000018,146.39368259999992,1,146.39558160000024,146.39989980000018,146.39989980000018,146.89335399999982,146.89335399999982,146.88769319999983,None,146.8877265000001,146.8877421000002,None,,,,,,,,,,,,,005,001,2026-01-21_17h02.26.484,NESC3137_EEG_experiment,,2025.1.1,144.40891985093305,2026-01-21 17h02.46.639468 -0400,
112,0,112,down,None,0.45741299999963303,None,,,112,0,112,0,146.89335399999982,,,,,,,,,,,,,,,,,,,,146.88785910000024,146.89335399999982,147.85311420000016,147.84492189999992,2,147.8469126,147.85311420000016,147.85311420000016,148.3444045000001,148.3444045000001,148.33777090000012,down,148.337806,148.33781980000003,None,0.45741299999963303,None,,,,,,,,,,,005,001,2026-01-21_17h02.26.484,NESC3137_EEG_experiment,,2025.1.1,144.40891985093305,2026-01-21 17h02.46.639468 -0400,
113,0,113,None,None,,,,,113,0,113,0,148.3444045000001,,,,,,,,,,,,,,,,,,,,148.33792059999996,148.3444045000001,149.12945579999996,149.12350990000004,2,149.1255827,149.12945579999996,149.12945579999996,149.6236402999998,149.6236402999998,149.61617549999983,None,149.61622910000006,149.61624419999998,None,,,,,,,,,,,,,005,001,2026-01-21_17h02.26.484,NESC3137_EEG_experiment,,2025.1.1,144.40891985093305,2026-01-21 17h02.46.639468 -0400,
114,0,114,None,None,,,,,114,0,114,0,149.6236402999998,,,,,,,,,,,,,,,,,,,,149.61635430000024,149.6236402999998,150.58881120000024,150.58098719999998,2,150.58298449999984,150.58881120000024,150.58881120000024,151.0820130000002,151.0820130000002,151.0741466999998,None,151.0741782,151.07419320000008,None,,,,,,,,,,,,,005,001,2026-01-21_17h02.26.484,NESC3137_EEG_experiment,,2025.1.1,144.40891985093305,2026-01-21 17h02.46.639468 -0400,
115,0,115,None,None,,,,,115,0,115,0,151.0820130000002,,,,,,,,,,,,,,,,,,,,151.07429460000003,151.0820130000002,151.734019,151.72706460000018,2,151.72873010000012,151.734019,151.734019,152.22791439999992,152.22791439999992,152.2219871000002,None,152.22204210000018,152.22205919999988,None,,,,,,,,,,,,,005,001,2026-01-21_17h02.26.484,NESC3137_EEG_experiment,,2025.1.1,144.40891985093305,2026-01-21 17h02.46.639468 -0400,
116,0,116,None,None,,,,,116,0,116,0,152.22791439999992,,,,,,,,,,,,,,,,,,,,152.22216740000022,152.22791439999992,152.72072260000004,152.71385689999988,1,152.71575710000025,152.72072260000004,152.72072260000004,153.2137520000001,153.2137520000001,153.20698989999983,None,153.20704239999986,153.20705799999996,None,,,,,,,,,,,,,005,001,2026-01-21_17h02.26.484,NESC3137_EEG_experiment,,2025.1.1,144.40891985093305,2026-01-21 17h02.46.639468 -0400,
117,0,117,None,None,,,,,117,0,117,0,153.2137520000001,,,,,,,,,,,,,,,,,,,,153.20716489999995,153.2137520000001,153.90084320000005,153.89396560000023,1,153.89568569999983,153.90084320000005,153.90084320000005,154.3938078000001,154.3938078000001,154.38786590000018,None,154.3879108000001,154.3879382,None,,,,,,,,,,,,,005,001,2026-01-21_17h02.26.484,NESC3137_EEG_experiment,,2025.1.1,144.40891985093305,2026-01-21 17h02.46.639468 -0400,
118,0,118,up,None,0.425535200000013,None,,,118,0,118,0,154.3938078000001,,,,,,,,,,,,,,,,,,,,154.3880939999999,154.3938078000001,155.16493059999993,155.15804040000012,1,155.15958630000023,155.16493059999993,155.16493059999993,155.65787709999995,155.65787709999995,155.6526429999999,up,155.65271089999987,155.65273130000014,None,0.425535200000013,None,,,,,,,,,,,005,001,2026-01-21_17h02.26.484,NESC3137_EEG_experiment,,2025.1.1,144.40891985093305,2026-01-21 17h02.46.639468 -0400,
119,0,119,None,None,,,,,119,0,119,0,155.65787709999995,,,,,,,,,,,,,,,,,,,,155.65284280000014,155.65787709999995,156.39477390000002,156.38874829999986,2,156.3906517999999,156.39477390000002,156.39477390000002,156.88733159999992,156.88733159999992,156.8805708,None,156.8806023000002,156.88061620000008,None,,,,,,,,,,,,,005,001,2026-01-21_17h02.26.484,NESC3137_EEG_experiment,,2025.1.1,144.40891985093305,2026-01-21 17h02.46.639468 -0400,
120,0,120,None,None,,,,,120,0,120,0,156.88733159999992,,,,,,,,,,,,,,,,,,,,156.88072139999986,156.88733159999992,157.8457956000002,157.83950809999988,1,157.8413458,157.8457956000002,157.8457956000002,158.33929720000015,158.33929720000015,158.3335090999999,None,158.33357079999996,158.33358899999985,None,,,,,,,,,,,,,005,001,2026-01-21_17h02.26.484,NESC3137_EEG_experiment,,2025.1.1,144.40891985093305,2026-01-21 17h02.46.639468 -0400,
121,0,121,None,None,,,,,121,0,121,0,158.33929720000015,,,,,,,,,,,,,,,,,,,,158.33373680000022,158.33929720000015,159.0964014000001,159.09096150000005,1,159.0931357999998,159.0964014000001,159.0964014000001,159.58892650000007,159.58892650000007,159.58238239999991,None,159.58241409999982,159.58242930000006,None,,,,,,,,,,,,,005,001,2026-01-21_17h02.26.484,NESC3137_EEG_experiment,,2025.1.1,144.40891985093305,2026-01-21 17h02.46.639468 -0400,
122,0,122,down,None,0.4201594999999543,None,,,122,0,122,0,159.58892650000007,,,,,,,,,,,,,,,,,,,,159.58253419999983,159.58892650000007,160.19442949999984,160.187813,2,160.19035059999987,160.19442949999984,160.19442949999984,160.68626660000018,160.68626660000018,160.6797034000001,down,160.67973930000016,160.67975410000008,None,0.4201594999999543,None,,,,,,,,,,,005,001,2026-01-21_17h02.26.484,NESC3137_EEG_experiment,,2025.1.1,144.40891985093305,2026-01-21 17h02.46.639468 -0400,
123,0,123,up,None,0.43487089999962336,None,,,123,0,123,0,160.68626660000018,,,,,,,,,,,,,,,,,,,,160.67987549999998,160.68626660000018,161.34760430000006,161.33952379999982,1,161.3411215000001,161.34760430000006,161.34760430000006,161.83982620000006,161.83982620000006,161.83259959999987,up,161.83265239999992,161.83267750000005,None,0.43487089999962336,None,,,,,,,,,,,005,001,2026-01-21_17h02.26.484,NESC3137_EEG_experiment,,2025.1.1,144.40891985093305,2026-01-21 17h02.46.639468 -0400,
124,0,124,None,None,,,,,124,0,124,0,161.83982620000006,,,,,,,,,,,,,,,,,,,,161.83283380000012,161.83982620000006,162.50736159999997,162.50012210000023,2,162.50178030000006,162.50736159999997,162.50736159999997,163.00016499999992,163.00016499999992,162.99320119999993,None,162.99323030000005,162.99324560000014,None,,,,,,,,,,,,,005,001,2026-01-21_17h02.26.484,NESC3137_EEG_experiment,,2025.1.1,144.40891985093305,2026-01-21 17h02.46.639468 -0400,
125,0,125,down,None,0.4689883999999438,None,,,125,0,125,0,163.00016499999992,,,,,,,,,,,,,,,,,,,,162.99334550000003,163.00016499999992,163.88148649999994,163.87429280000015,2,163.87592600000016,163.88148649999994,163.88148649999994,164.37476900000001,164.37476900000001,164.36767240000017,down,164.3677074000002,164.36772150000024,None,0.4689883999999438,None,,,,,,,,,,,005,001,2026-01-21_17h02.26.484,NESC3137_EEG_experiment,,2025.1.1,144.40891985093305,2026-01-21 17h02.46.639468 -0400,
126,0,126,None,None,,,,,126,0,126,0,164.37476900000001,,,,,,,,,,,,,,,,,,,,164.36782170000015,164.37476900000001,164.87469599999986,164.86769300000014,1,164.86944390000008,164.87469599999986,164.87469599999986,165.36761119999983,165.36761119999983,165.36059119999982,None,165.36063379999996,165.36065959999996,None,,,,,,,,,,,,,005,001,2026-01-21_17h02.26.484,NESC3137_EEG_experiment,,2025.1.1,144.40891985093305,2026-01-21 17h02.46.639468 -0400,
127,0,127,None,None,,,,,127,0,127,0,165.36761119999983,,,,,,,,,,,,,,,,,,,,165.36081079999985,165.36761119999983,166.01350200000024,166.00672110000005,1,166.0082464000002,166.01350200000024,166.01350200000024,166.50745159999997,166.50745159999997,166.50083600000016,None,166.50087729999996,166.5008931000002,None,,,,,,,,,,,,,005,001,2026-01-21_17h02.26.484,NESC3137_EEG_experiment,,2025.1.1,144.40891985093305,2026-01-21 17h02.46.639468 -0400,
128,0,128,None,None,,,,,128,0,128,0,166.50745159999997,,,,,,,,,,,,,,,,,,,,166.50104409999994,166.50745159999997,167.47204030000012,167.46528649999982,1,167.46712819999993,167.47204030000012,167.47204030000012,167.9660518999999,167.9660518999999,167.95955550000008,None,167.95958680000012,167.95960220000006,None,,,,,,,,,,,,,005,001,2026-01-21_17h02.26.484,NESC3137_EEG_experiment,,2025.1.1,144.40891985093305,2026-01-21 17h02.46.639468 -0400,
129,0,129,None,None,,,,,129,0,129,0,167.9660518999999,,,,,,,,,,,,,,,,,,,,167.95970390000002,167.9660518999999,168.71618739999985,168.70991030000005,1,168.71167190000006,168.71618739999985,168.71618739999985,169.2092848000002,169.2092848000002,169.20233710000002,None,169.20236830000022,169.20238199999994,None,,,,,,,,,,,,,005,001,2026-01-21_17h02.26.484,NESC3137_EEG_experiment,,2025.1.1,144.40891985093305,2026-01-21 17h02.46.639468 -0400,
130,0,130,up,None,0.4377095999998346,None,,,130,0,130,0,169.2092848000002,,,,,,,,,,,,,,,,,,,,169.2024824,169.2092848000002,169.79277159999992,169.78496189999987,1,169.78657999999996,169.79277159999992,169.79277159999992,170.28591050000023,170.28591050000023,170.27826099999993,up,170.27829659999998,170.2783204000002,None,0.4377095999998346,None,,,,,,,,,,,005,001,2026-01-21_17h02.26.484,NESC3137_EEG_experiment,,2025.1.1,144.40891985093305,2026-01-21 17h02.46.639468 -0400,
131,0,131,None,None,,,,,131,0,131,0,170.28591050000023,,,,,,,,,,,,,,,,,,,,170.27848380000023,170.28591050000023,170.9517007999998,170.94489479999993,2,170.9466137999998,170.9517007999998,170.9517007999998,171.44473299999981,171.44473299999981,171.43838589999996,None,171.43842899999981,171.43845509999983,None,,,,,,,,,,,,,005,001,2026-01-21_17h02.26.484,NESC3137_EEG_experiment,,2025.1.1,144.40891985093305,2026-01-21 17h02.46.639468 -0400,
132,0,132,None,None,,,,,132,0,132,0,171.44473299999981,,,,,,,,,,,,,,,,,,,,171.43859299999986,171.44473299999981,172.27926200000002,172.27234660000022,2,172.27460870000004,172.27926200000002,172.27926200000002,172.77251849999993,172.77251849999993,172.76475329999994,None,172.7647834999998,172.76479759999984,None,,,,,,,,,,,,,005,001,2026-01-21_17h02.26.484,NESC3137_EEG_experiment,,2025.1.1,144.40891985093305,2026-01-21 17h02.46.639468 -0400,
133,0,133,None,None,,,,,133,0,133,0,172.77251849999993,,,,,,,,,,,,,,,,,,,,172.76489949999996,172.77251849999993,173.40333139999984,173.39754489999996,1,173.39946420000024,173.40333139999984,173.40333139999984,173.89741589999994,173.89741589999994,173.89017319999994,None,173.89020879999998,173.89022560000012,None,,,,,,,,,,,,,005,001,2026-01-21_17h02.26.484,NESC3137_EEG_experiment,,2025.1.1,144.40891985093305,2026-01-21 17h02.46.639468 -0400,
134,0,134,None,None,,,,,134,0,134,0,173.89741589999994,,,,,,,,,,,,,,,,,,,,173.8903418,173.89741589999994,174.73770779999995,174.73005490000014,2,174.73149379999995,174.73770779999995,174.73770779999995,175.23101099999985,175.23101099999985,175.22326920000023,None,175.22329979999995,175.22331299999996,None,,,,,,,,,,,,,005,001,2026-01-21_17h02.26.484,NESC3137_EEG_experiment,,2025.1.1,144.40891985093305,2026-01-21 17h02.46.639468 -0400,
135,0,135,None,None,,,,,135,0,135,0,175.23101099999985,,,,,,,,,,,,,,,,,,,,175.22342190000018,175.23101099999985,175.75809900000013,175.75108739999996,2,175.75267089999988,175.75809900000013,175.75809900000013,176.25097340000002,176.25097340000002,176.2444786000001,None,176.24451069999986,176.24452410000004,None,,,,,,,,,,,,,005,001,2026-01-21_17h02.26.484,NESC3137_EEG_experiment,,2025.1.1,144.40891985093305,2026-01-21 17h02.46.639468 -0400,
136,0,136,None,None,,,,,136,0,136,0,176.25097340000002,,,,,,,,,,,,,,,,,,,,176.2446329999998,176.25097340000002,177.00917149999987,177.00170419999995,1,177.00385000000006,177.00917149999987,177.00917149999987,177.5010852999999,177.5010852999999,177.49522419999994,None,177.4952733,177.49529029999985,None,,,,,,,,,,,,,005,001,2026-01-21_17h02.26.484,NESC3137_EEG_experiment,,2025.1.1,144.40891985093305,2026-01-21 17h02.46.639468 -0400,
137,0,137,up,None,0.23635679999961212,0.13577570000006745,,,137,0,137,0,177.5010852999999,,,,,,,,,,,,,,,,,,,,177.49543700000004,177.5010852999999,177.9943930999998,177.9872774999999,1,177.98907229999986,177.9943930999998,177.9943930999998,178.4873874,178.4873874,178.4816778999998,up,178.48173869999982,178.48176310000008,None,0.23635679999961212,0.13577570000006745,,,,,,,,,,,005,001,2026-01-21_17h02.26.484,NESC3137_EEG_experiment,,2025.1.1,144.40891985093305,2026-01-21 17h02.46.639468 -0400,
138,0,138,up,None,0.2707629999999881,0.1362277999996877,,,138,0,138,0,178.4873874,,,,,,,,,,,,,,,,,,,,178.48197979999986,178.4873874,179.27969900000016,179.27235789999986,2,179.27403120000008,179.27969900000016,179.27969900000016,179.7736746999999,179.7736746999999,179.76536309999983,up,179.765398,179.76541270000007,None,0.2707629999999881,0.1362277999996877,,,,,,,,,,,005,001,2026-01-21_17h02.26.484,NESC3137_EEG_experiment,,2025.1.1,144.40891985093305,2026-01-21 17h02.46.639468 -0400,
139,0,139,None,None,,,,,139,0,139,0,179.7736746999999,,,,,,,,,,,,,,,,,,,,179.76551569999992,179.7736746999999,180.74585560000014,180.7386136,2,180.7403132999998,180.74585560000014,180.74585560000014,181.2387921999998,181.2387921999998,181.2314176,None,181.23144860000002,181.23146290000022,None,,,,,,,,,,,,,005,001,2026-01-21_17h02.26.484,NESC3137_EEG_experiment,,2025.1.1,144.40891985093305,2026-01-21 17h02.46.639468 -0400,
140,0,140,up,None,0.41376660000014454,None,,,140,0,140,0,181.2387921999998,,,,,,,,,,,,,,,,,,,,181.23170960000016,181.2387921999998,182.11279430000013,182.1063522999998,1,182.1084139999998,182.11279430000013,182.11279430000013,182.60590809999985,182.60590809999985,182.59920620000003,up,182.59926630000018,182.59928450000007,None,0.41376660000014454,None,,,,,,,,,,,005,001,2026-01-21_17h02.26.484,NESC3137_EEG_experiment,,2025.1.1,144.40891985093305,2026-01-21 17h02.46.639468 -0400,
141,0,141,None,None,,,,,141,0,141,0,182.60590809999985,,,,,,,,,,,,,,,,,,,,182.59939870000017,182.60590809999985,183.5796703000001,183.57263590000002,2,183.57414180000023,183.5796703000001,183.5796703000001,184.0712349999999,184.0712349999999,184.06458789999988,None,184.06461900000022,184.06463380000014,None,,,,,,,,,,,,,005,001,2026-01-21_17h02.26.484,NESC3137_EEG_experiment,,2025.1.1,144.40891985093305,2026-01-21 17h02.46.639468 -0400,
142,0,142,None,None,,,,,142,0,142,0,184.0712349999999,,,,,,,,,,,,,,,,,,,,184.06475580000006,184.0712349999999,184.5930045,184.58665100000007,1,184.5881113999999,184.5930045,184.5930045,185.0854734999998,185.0854734999998,185.0786874999999,None,185.0787178999999,185.07873150000023,None,,,,,,,,,,,,,005,001,2026-01-21_17h02.26.484,NESC3137_EEG_experiment,,2025.1.1,144.40891985093305,2026-01-21 17h02.46.639468 -0400,
143,0,143,None,None,,,,,143,0,143,0,185.0854734999998,,,,,,,,,,,,,,,,,,,,185.07883260000017,185.0854734999998,185.9954130000001,185.9882434000001,1,185.9902664000001,185.9954130000001,185.9954130000001,186.48829030000024,186.48829030000024,186.48246789999985,None,186.4825369,186.48256459999993,None,,,,,,,,,,,,,005,001,2026-01-21_17h02.26.484,NESC3137_EEG_experiment,,2025.1.1,144.40891985093305,2026-01-21 17h02.46.639468 -0400,
144,0,144,None,None,,,,,144,0,144,0,186.48829030000024,,,,,,,,,,,,,,,,,,,,186.48282160000008,186.48829030000024,187.30797810000013,187.30173700000023,1,187.3037147,187.30797810000013,187.30797810000013,187.80090990000008,187.80090990000008,187.79447269999991,None,187.79451860000017,187.7945364000002,None,,,,,,,,,,,,,005,001,2026-01-21_17h02.26.484,NESC3137_EEG_experiment,,2025.1.1,144.40891985093305,2026-01-21 17h02.46.639468 -0400,
145,0,145,down,None,0.4248979999997573,None,,,145,0,145,0,187.80090990000008,,,,,,,,,,,,,,,,,,,,187.79470320000019,187.80090990000008,188.56560309999986,188.5581118,2,188.56015079999997,188.56560309999986,188.56560309999986,189.05921179999996,189.05921179999996,189.05124019999994,down,189.05127529999982,189.0512887,None,0.4248979999997573,None,,,,,,,,,,,005,001,2026-01-21_17h02.26.484,NESC3137_EEG_experiment,,2025.1.1,144.40891985093305,2026-01-21 17h02.46.639468 -0400,
146,0,146,down,None,0.4184312000002137,None,,,146,0,146,0,189.05921179999996,,,,,,,,,,,,,,,,,,,,189.05139150000014,189.05921179999996,189.73209829999996,189.72489080000014,2,189.7265354000001,189.73209829999996,189.73209829999996,190.22572260000015,190.22572260000015,190.21874359999993,down,190.21878400000014,190.2188024000002,None,0.4184312000002137,None,,,,,,,,,,,005,001,2026-01-21_17h02.26.484,NESC3137_EEG_experiment,,2025.1.1,144.40891985093305,2026-01-21 17h02.46.639468 -0400,
147,0,147,down,None,0.3929705999998987,None,,,147,0,147,0,190.22572260000015,,,,,,,,,,,,,,,,,,,,190.2189186999999,190.22572260000015,191.03757600000017,191.03059480000002,2,191.03232100000014,191.03757600000017,191.03757600000017,191.53159790000018,191.53159790000018,191.52452390000008,down,191.5245762999998,191.52460220000012,None,0.3929705999998987,None,,,,,,,,,,,005,001,2026-01-21_17h02.26.484,NESC3137_EEG_experiment,,2025.1.1,144.40891985093305,2026-01-21 17h02.46.639468 -0400,
148,0,148,None,None,,,,,148,0,148,0,191.53159790000018,,,,,,,,,,,,,,,,,,,,191.52476019999995,191.53159790000018,192.07958969999981,192.07348330000013,1,192.07553899999994,192.07958969999981,192.07958969999981,192.5727439000002,192.5727439000002,192.56562729999996,None,192.5656571999998,192.56567200000018,None,,,,,,,,,,,,,005,001,2026-01-21_17h02.26.484,NESC3137_EEG_experiment,,2025.1.1,144.40891985093305,2026-01-21 17h02.46.639468 -0400,
149,0,149,None,None,,,,,149,0,149,0,192.5727439000002,,,,,,,,,,,,,,,,,,,,192.56577030000017,192.5727439000002,193.5658628000001,193.55868250000003,1,193.5603987999998,193.5658628000001,193.5658628000001,194.05973589999985,194.05973589999985,194.05272569999988,None,194.05275829999982,194.05277320000005,None,,,,,,,,,,,,,005,001,2026-01-21_17h02.26.484,NESC3137_EEG_experiment,,2025.1.1,144.40891985093305,2026-01-21 17h02.46.639468 -0400,
150,0,150,down,None,0.40152179999995496,None,,,150,0,150,0,194.05973589999985,,,,,,,,,,,,,,,,,,,,194.05287529999987,194.05973589999985,195.0450337000002,195.03939320000018,2,195.0411598999999,195.0450337000002,195.0450337000002,195.53799930000014,195.53799930000014,195.53129679999984,down,195.53133149999985,195.53134499999987,None,0.40152179999995496,None,,,,,,,,,,,005,001,2026-01-21_17h02.26.484,NESC3137_EEG_experiment,,2025.1.1,144.40891985093305,2026-01-21 17h02.46.639468 -0400,
151,0,151,up,None,0.4578228999998828,None,,,151,0,151,0,195.53799930000014,,,,,,,,,,,,,,,,,,,,195.53144539999994,195.53799930000014,196.26865020000014,196.2608651999999,1,196.26263229999995,196.26865020000014,196.26865020000014,196.7612205999999,196.7612205999999,196.7535512999998,up,196.7535852000001,196.75359879999996,None,0.4578228999998828,None,,,,,,,,,,,005,001,2026-01-21_17h02.26.484,NESC3137_EEG_experiment,,2025.1.1,144.40891985093305,2026-01-21 17h02.46.639468 -0400,
152,0,152,None,None,,,,,152,0,152,0,196.7612205999999,,,,,,,,,,,,,,,,,,,,196.75369820000014,196.7612205999999,197.42072009999993,197.4133984,2,197.41515419999996,197.42072009999993,197.42072009999993,197.91451830000005,197.91451830000005,197.90676440000016,None,197.90679619999992,197.90680999999995,None,,,,,,,,,,,,,005,001,2026-01-21_17h02.26.484,NESC3137_EEG_experiment,,2025.1.1,144.40891985093305,2026-01-21 17h02.46.639468 -0400,
153,0,153,None,None,,,,,153,0,153,0,197.91451830000005,,,,,,,,,,,,,,,,,,,,197.9069184,197.91451830000005,198.67788699999983,198.67073579999987,1,198.6724789,198.67788699999983,198.67788699999983,199.1706038000002,199.1706038000002,199.16413620000003,None,199.16418179999982,199.16419670000005,None,,,,,,,,,,,,,005,001,2026-01-21_17h02.26.484,NESC3137_EEG_experiment,,2025.1.1,144.40891985093305,2026-01-21 17h02.46.639468 -0400,
154,0,154,None,None,,,,,154,0,154,0,199.1706038000002,,,,,,,,,,,,,,,,,,,,199.16430149999997,199.1706038000002,199.8581936999999,199.8524828999998,1,199.85545899999988,199.8581936999999,199.8581936999999,200.3511156999998,200.3511156999998,200.34496690000014,None,200.3449982000002,200.3450124000001,None,,,,,,,,,,,,,005,001,2026-01-21_17h02.26.484,NESC3137_EEG_experiment,,2025.1.1,144.40891985093305,2026-01-21 17h02.46.639468 -0400,
155,0,155,None,None,,,,,155,0,155,0,200.3511156999998,,,,,,,,,,,,,,,,,,,,200.3451153000001,200.3511156999998,201.06665190000012,201.06058110000004,1,201.06266520000008,201.06665190000012,201.06665190000012,201.5597302000001,201.5597302000001,201.55284889999984,None,201.55287929999986,201.55289360000006,None,,,,,,,,,,,,,005,001,2026-01-21_17h02.26.484,NESC3137_EEG_experiment,,2025.1.1,144.40891985093305,2026-01-21 17h02.46.639468 -0400,
156,0,156,None,None,,,,,156,0,156,0,201.5597302000001,,,,,,,,,,,,,,,,,,,,201.55299700000023,201.5597302000001,202.47036019999996,202.4642116,1,202.46579509999992,202.47036019999996,202.47036019999996,202.9627418,202.9627418,202.95595259999982,None,202.95598359999985,202.95599840000023,None,,,,,,,,,,,,,005,001,2026-01-21_17h02.26.484,NESC3137_EEG_experiment,,2025.1.1,144.40891985093305,2026-01-21 17h02.46.639468 -0400,
157,0,157,None,None,,,,,157,0,157,0,202.9627418,,,,,,,,,,,,,,,,,,,,202.9561007000002,202.9627418,203.6024897000002,203.59480380000014,1,203.59645339999997,203.6024897000002,203.6024897000002,204.09597040000017,204.09597040000017,204.08807939999997,None,204.08811060000016,204.08813379999992,None,,,,,,,,,,,,,005,001,2026-01-21_17h02.26.484,NESC3137_EEG_experiment,,2025.1.1,144.40891985093305,2026-01-21 17h02.46.639468 -0400,
158,0,158,None,None,,,,,158,0,158,0,204.09597040000017,,,,,,,,,,,,,,,,,,,,204.08824060000006,204.09597040000017,204.71330119999993,204.70727390000002,1,204.71005049999985,204.71330119999993,204.71330119999993,205.20589599999994,205.20589599999994,205.19916409999996,None,205.19919359999994,205.1992077,None,,,,,,,,,,,,,005,001,2026-01-21_17h02.26.484,NESC3137_EEG_experiment,,2025.1.1,144.40891985093305,2026-01-21 17h02.46.639468 -0400,
159,0,159,up,None,0.3438295000000835,None,,,159,0,159,0,205.20589599999994,,,,,,,,,,,,,,,,,,,,205.19930680000016,205.20589599999994,205.8869126999998,205.88029240000014,1,205.88213159999987,205.8869126999998,205.8869126999998,206.3802768999999,206.3802768999999,206.37355590000016,up,206.37360960000024,206.37362359999997,None,0.3438295000000835,None,,,,,,,,,,,005,001,2026-01-21_17h02.26.484,NESC3137_EEG_experiment,,2025.1.1,144.40891985093305,2026-01-21 17h02.46.639468 -0400,
160,0,160,down,None,0.46513950000007753,None,,,160,0,160,0,206.3802768999999,,,,,,,,,,,,,,,,,,,,206.37373479999997,206.3802768999999,206.94956439999987,206.94262949999984,2,206.94436589999987,206.94956439999987,206.94956439999987,207.4429338,207.4429338,207.43556209999997,down,207.4355971,207.4356111000002,None,0.46513950000007753,None,,,,,,,,,,,005,001,2026-01-21_17h02.26.484,NESC3137_EEG_experiment,,2025.1.1,144.40891985093305,2026-01-21 17h02.46.639468 -0400,
161,0,161,down,None,0.3997759000003498,None,,,161,0,161,0,207.4429338,,,,,,,,,,,,,,,,,,,,207.43571299999985,207.4429338,208.41479609999988,208.4080097000001,2,208.41002630000003,208.41479609999988,208.41479609999988,208.9077960999998,208.9077960999998,208.9016630000001,down,208.90169849999984,208.90171240000018,None,0.3997759000003498,None,,,,,,,,,,,005,001,2026-01-21_17h02.26.484,NESC3137_EEG_experiment,,2025.1.1,144.40891985093305,2026-01-21 17h02.46.639468 -0400,
162,0,162,up,None,0.4415963000001284,None,,,162,0,162,0,208.9077960999998,,,,,,,,,,,,,,,,,,,,208.90181660000007,208.9077960999998,209.79694710000012,209.79144420000011,1,209.79358009999987,209.79694710000012,209.79694710000012,210.2900983999998,210.2900983999998,210.28337950000014,up,210.28343610000002,210.28345219999983,None,0.4415963000001284,None,,,,,,,,,,,005,001,2026-01-21_17h02.26.484,NESC3137_EEG_experiment,,2025.1.1,144.40891985093305,2026-01-21 17h02.46.639468 -0400,
163,0,163,None,None,,,,,163,0,163,0,210.2900983999998,,,,,,,,,,,,,,,,,,,,210.28362100000004,210.2900983999998,210.9082787000002,210.90258589999985,2,210.90593330000002,210.9082787000002,210.9082787000002,211.4011558000002,211.4011558000002,211.39452140000003,None,211.39455290000024,211.39456659999996,None,,,,,,,,,,,,,005,001,2026-01-21_17h02.26.484,NESC3137_EEG_experiment,,2025.1.1,144.40891985093305,2026-01-21 17h02.46.639468 -0400,
164,0,164,up,None,0.41549829999985377,None,,,164,0,164,0,211.4011558000002,,,,,,,,,,,,,,,,,,,,211.39467030000014,211.4011558000002,211.91095640000003,211.9035828000001,1,211.90858849999995,211.91095640000003,211.91095640000003,212.40147230000002,212.40147230000002,212.3946774000001,up,212.3947164000001,212.39473050000015,None,0.41549829999985377,None,,,,,,,,,,,005,001,2026-01-21_17h02.26.484,NESC3137_EEG_experiment,,2025.1.1,144.40891985093305,2026-01-21 17h02.46.639468 -0400,
165,0,165,None,None,,,,,165,0,165,0,212.40147230000002,,,,,,,,,,,,,,,,,,,,212.3948350999999,212.40147230000002,213.3876965999998,213.38094769999998,2,213.3826236,213.3876965999998,213.3876965999998,213.8814897000002,213.8814897000002,213.87410670000008,None,213.8742575000001,213.87428480000017,None,,,,,,,,,,,,,005,001,2026-01-21_17h02.26.484,NESC3137_EEG_experiment,,2025.1.1,144.40891985093305,2026-01-21 17h02.46.639468 -0400,
166,0,166,None,None,,,,,166,0,166,0,213.8814897000002,,,,,,,,,,,,,,,,,,,,213.87440560000005,213.8814897000002,214.63089900000023,214.62401279999995,1,214.6259212,214.63089900000023,214.63089900000023,215.12515250000024,215.12515250000024,215.1171177000001,None,215.11714930000016,215.11716290000004,None,,,,,,,,,,,,,005,001,2026-01-21_17h02.26.484,NESC3137_EEG_experiment,,2025.1.1,144.40891985093305,2026-01-21 17h02.46.639468 -0400,
167,0,167,None,None,,,,,167,0,167,0,215.12515250000024,,,,,,,,,,,,,,,,,,,,215.11726360000011,215.12515250000024,215.71444999999994,215.70760699999983,2,215.70966050000015,215.71444999999994,215.71444999999994,216.20847970000023,216.20847970000023,216.20245290000003,None,216.2026052000001,216.20262120000007,None,,,,,,,,,,,,,005,001,2026-01-21_17h02.26.484,NESC3137_EEG_experiment,,2025.1.1,144.40891985093305,2026-01-21 17h02.46.639468 -0400,
168,0,168,up,None,0.4590733,None,,,168,0,168,0,216.20847970000023,,,,,,,,,,,,,,,,,,,,216.20273320000024,216.20847970000023,217.02750819999983,217.0202465000002,1,217.0220817999998,217.02750819999983,217.02750819999983,217.52110189999985,217.52110189999985,217.51446029999988,up,217.5144994000002,217.51451839999982,None,0.4590733,None,,,,,,,,,,,005,001,2026-01-21_17h02.26.484,NESC3137_EEG_experiment,,2025.1.1,144.40891985093305,2026-01-21 17h02.46.639468 -0400,
169,0,169,None,None,,,,,169,0,169,0,217.52110189999985,,,,,,,,,,,,,,,,,,,,217.51461870000003,217.52110189999985,218.50779250000005,218.49929810000003,2,218.50096789999998,218.50779250000005,218.50779250000005,218.99945789999992,218.99945789999992,218.99368099999992,None,218.99373220000007,218.99374990000024,None,,,,,,,,,,,,,005,001,2026-01-21_17h02.26.484,NESC3137_EEG_experiment,,2025.1.1,144.40891985093305,2026-01-21 17h02.46.639468 -0400,
170,0,170,None,None,,,,,170,0,170,0,218.99945789999992,,,,,,,,,,,,,,,,,,,,218.9940234999999,218.99945789999992,219.65238550000004,219.64557449999984,2,219.64745459999995,219.65238550000004,219.65238550000004,220.14655730000004,220.14655730000004,220.13881459999993,None,220.13885200000004,220.1388664000001,None,,,,,,,,,,,,,005,001,2026-01-21_17h02.26.484,NESC3137_EEG_experiment,,2025.1.1,144.40891985093305,2026-01-21 17h02.46.639468 -0400,
171,0,171,None,None,,,,,171,0,171,0,220.14655730000004,,,,,,,,,,,,,,,,,,,,220.1389736000001,220.14655730000004,220.73006889999988,220.7222812,1,220.72405800000024,220.73006889999988,220.73006889999988,221.22230630000013,221.22230630000013,221.2151088999999,None,221.21513929999992,221.21515610000006,None,,,,,,,,,,,,,005,001,2026-01-21_17h02.26.484,NESC3137_EEG_experiment,,2025.1.1,144.40891985093305,2026-01-21 17h02.46.639468 -0400,
172,0,172,down,None,0.41211989999965226,None,,,172,0,172,0,221.22230630000013,,,,,,,,,,,,,,,,,,,,221.2152716999999,221.22230630000013,222.20235200000025,222.1960898000002,2,222.19803809999985,222.20235200000025,222.20235200000025,222.69431870000017,222.69431870000017,222.68779399999994,down,222.68783059999987,222.68784540000024,None,0.41211989999965226,None,,,,,,,,,,,005,001,2026-01-21_17h02.26.484,NESC3137_EEG_experiment,,2025.1.1,144.40891985093305,2026-01-21 17h02.46.639468 -0400,
173,0,173,up,None,0.36184929999990345,None,,,173,0,173,0,222.69431870000017,,,,,,,,,,,,,,,,,,,,222.68796109999994,222.69431870000017,223.34063860000015,223.33347240000012,1,223.33509649999996,223.34063860000015,223.34063860000015,223.83396529999982,223.83396529999982,223.82803550000017,up,223.82808780000005,223.82810340000015,None,0.36184929999990345,None,,,,,,,,,,,005,001,2026-01-21_17h02.26.484,NESC3137_EEG_experiment,,2025.1.1,144.40891985093305,2026-01-21 17h02.46.639468 -0400,
174,0,174,None,None,,,,,174,0,174,0,223.83396529999982,,,,,,,,,,,,,,,,,,,,223.82823659999985,223.83396529999982,224.67387740000004,224.66754040000023,2,224.66950210000005,224.67387740000004,224.67387740000004,225.16682500000024,225.16682500000024,225.16010920000008,None,225.16015220000008,225.16017710000006,None,,,,,,,,,,,,,005,001,2026-01-21_17h02.26.484,NESC3137_EEG_experiment,,2025.1.1,144.40891985093305,2026-01-21 17h02.46.639468 -0400,
175,0,175,None,None,,,,,175,0,175,0,225.16682500000024,,,,,,,,,,,,,,,,,,,,225.16032959999984,225.16682500000024,226.0143091,226.00753429999986,2,226.0094138999998,226.0143091,226.0143091,226.5074298999998,226.5074298999998,226.50256979999995,None,226.5026925000002,226.50272829999994,None,,,,,,,,,,,,,005,001,2026-01-21_17h02.26.484,NESC3137_EEG_experiment,,2025.1.1,144.40891985093305,2026-01-21 17h02.46.639468 -0400,
176,0,176,None,None,,,,,176,0,176,0,226.5074298999998,,,,,,,,,,,,,,,,,,,,226.50308369999993,226.5074298999998,227.16034249999984,227.15395239999998,2,227.15567349999992,227.16034249999984,227.16034249999984,227.65436769999997,227.65436769999997,227.64646949999997,None,227.6464992000001,227.64651529999992,None,,,,,,,,,,,,,005,001,2026-01-21_17h02.26.484,NESC3137_EEG_experiment,,2025.1.1,144.40891985093305,2026-01-21 17h02.46.639468 -0400,
177,0,177,None,None,,,,,177,0,177,0,227.65436769999997,,,,,,,,,,,,,,,,,,,,227.6466187000001,227.65436769999997,228.1466931,228.1398468000002,2,228.14169840000022,228.1466931,228.1466931,228.63969439999983,228.63969439999983,228.63397080000004,None,228.63403370000015,228.63406339999983,None,,,,,,,,,,,,,005,001,2026-01-21_17h02.26.484,NESC3137_EEG_experiment,,2025.1.1,144.40891985093305,2026-01-21 17h02.46.639468 -0400,
178,0,178,None,None,,,,,178,0,178,0,228.63969439999983,,,,,,,,,,,,,,,,,,,,228.63425020000022,228.63969439999983,229.35560459999988,229.3496522999999,1,229.3516866,229.35560459999988,229.35560459999988,229.84808509999993,229.84808509999993,229.8424055999999,None,229.8424556,229.84247300000015,None,,,,,,,,,,,,,005,001,2026-01-21_17h02.26.484,NESC3137_EEG_experiment,,2025.1.1,144.40891985093305,2026-01-21 17h02.46.639468 -0400,
179,0,179,None,None,,,,,179,0,179,0,229.84808509999993,,,,,,,,,,,,,,,,,,,,229.84262510000008,229.84808509999993,230.55662089999987,230.54964530000007,2,230.5513022,230.55662089999987,230.55662089999987,231.05056030000014,231.05056030000014,231.0438220000001,None,231.04386139999997,231.04387880000013,None,,,,,,,,,,,,,005,001,2026-01-21_17h02.26.484,NESC3137_EEG_experiment,,2025.1.1,144.40891985093305,2026-01-21 17h02.46.639468 -0400,
180,0,180,up,None,0.4014809000000241,None,,,180,0,180,0,231.05056030000014,,,,,,,,,,,,,,,,,,,,231.04399620000004,231.05056030000014,231.8691920000001,231.86226729999998,1,231.8643772999999,231.8691920000001,231.8691920000001,232.36323399999992,232.36323399999992,232.35664610000003,up,232.35668339999984,232.35669719999987,None,0.4014809000000241,None,,,,,,,,,,,005,001,2026-01-21_17h02.26.484,NESC3137_EEG_experiment,,2025.1.1,144.40891985093305,2026-01-21 17h02.46.639468 -0400,
181,0,181,down,None,0.38442669999994905,None,,,181,0,181,0,232.36323399999992,,,,,,,,,,,,,,,,,,,,232.35680170000023,232.36323399999992,233.0221093,233.01658009999983,2,233.01862540000002,233.0221093,233.0221093,233.5153839999998,233.5153839999998,233.5085399999998,down,233.50859040000023,233.5086182,None,0.38442669999994905,None,,,,,,,,,,,005,001,2026-01-21_17h02.26.484,NESC3137_EEG_experiment,,2025.1.1,144.40891985093305,2026-01-21 17h02.46.639468 -0400,
182,0,182,None,None,,,,,182,0,182,0,233.5153839999998,,,,,,,,,,,,,,,,,,,,233.50877200000014,233.5153839999998,234.48074769999994,234.4741939999999,1,234.47598890000017,234.48074769999994,234.48074769999994,234.9738809999999,234.9738809999999,234.96692940000003,None,234.96697679999988,234.9670028999999,None,,,,,,,,,,,,,005,001,2026-01-21_17h02.26.484,NESC3137_EEG_experiment,,2025.1.1,144.40891985093305,2026-01-21 17h02.46.639468 -0400,
183,0,183,None,None,,,,,183,0,183,0,234.9738809999999,,,,,,,,,,,,,,,,,,,,234.96716520000018,234.9738809999999,235.75975049999988,235.75294399999984,1,235.75582200000008,235.75975049999988,235.75975049999988,236.25227799999993,236.25227799999993,236.2450758,None,236.2451087999998,236.24512730000015,None,,,,,,,,,,,,,005,001,2026-01-21_17h02.26.484,NESC3137_EEG_experiment,,2025.1.1,144.40891985093305,2026-01-21 17h02.46.639468 -0400,
184,0,184,None,None,,,,,184,0,184,0,236.25227799999993,,,,,,,,,,,,,,,,,,,,236.2452545000001,236.25227799999993,237.0295970000002,237.02324469999985,1,237.02492630000006,237.0295970000002,237.0295970000002,237.52256549999993,237.52256549999993,237.51682230000006,None,237.51686010000003,237.5168751000001,None,,,,,,,,,,,,,005,001,2026-01-21_17h02.26.484,NESC3137_EEG_experiment,,2025.1.1,144.40891985093305,2026-01-21 17h02.46.639468 -0400,
185,0,185,None,None,,,,,185,0,185,0,237.52256549999993,,,,,,,,,,,,,,,,,,,,237.5170102000002,237.52256549999993,238.3366903000001,238.3294492,2,238.3309119999999,238.3366903000001,238.3366903000001,238.8295935000001,238.8295935000001,238.8215599,None,238.82158960000015,238.82160340000019,None,,,,,,,,,,,,,005,001,2026-01-21_17h02.26.484,NESC3137_EEG_experiment,,2025.1.1,144.40891985093305,2026-01-21 17h02.46.639468 -0400,
186,0,186,None,None,,,,,186,0,186,0,238.8295935000001,,,,,,,,,,,,,,,,,,,,238.82170140000017,238.8295935000001,239.61470869999994,239.6078582,2,239.60980169999993,239.61470869999994,239.61470869999994,240.1063847999999,240.1063847999999,240.0994854999999,None,240.09951499999988,240.09952840000005,None,,,,,,,,,,,,,005,001,2026-01-21_17h02.26.484,NESC3137_EEG_experiment,,2025.1.1,144.40891985093305,2026-01-21 17h02.46.639468 -0400,
187,0,187,None,None,,,,,187,0,187,0,240.1063847999999,,,,,,,,,,,,,,,,,,,,240.09962499999983,240.1063847999999,240.88423909999983,240.87864209999998,1,240.8803799000002,240.88423909999983,240.88423909999983,241.37867289999986,241.37867289999986,241.37049780000007,None,241.3705288000001,241.37054279999984,None,,,,,,,,,,,,,005,001,2026-01-21_17h02.26.484,NESC3137_EEG_experiment,,2025.1.1,144.40891985093305,2026-01-21 17h02.46.639468 -0400,
188,0,188,None,None,,,,,188,0,188,0,241.37867289999986,,,,,,,,,,,,,,,,,,,,241.37064409999994,241.37867289999986,242.19759699999986,242.18997070000023,2,242.19144030000007,242.19759699999986,242.19759699999986,242.69072910000023,242.69072910000023,242.68386340000006,None,242.68389860000025,242.68391710000014,None,,,,,,,,,,,,,005,001,2026-01-21_17h02.26.484,NESC3137_EEG_experiment,,2025.1.1,144.40891985093305,2026-01-21 17h02.46.639468 -0400,
189,0,189,up,None,0.4689484000000448,None,,,189,0,189,0,242.69072910000023,,,,,,,,,,,,,,,,,,,,242.68404210000017,242.69072910000023,243.48172909999994,243.4750769000002,1,243.47742040000003,243.48172909999994,243.48172909999994,243.97544199999993,243.97544199999993,243.96884069999987,up,243.96887849999985,243.96889499999997,None,0.4689484000000448,None,,,,,,,,,,,005,001,2026-01-21_17h02.26.484,NESC3137_EEG_experiment,,2025.1.1,144.40891985093305,2026-01-21 17h02.46.639468 -0400,
190,0,190,None,None,,,,,190,0,190,0,243.97544199999993,,,,,,,,,,,,,,,,,,,,243.96905830000014,243.97544199999993,244.89280289999988,244.88473139999996,2,244.88636989999986,244.89280289999988,244.89280289999988,245.3846739999999,245.3846739999999,245.3781444000001,None,245.37818650000008,245.37821269999995,None,,,,,,,,,,,,,005,001,2026-01-21_17h02.26.484,NESC3137_EEG_experiment,,2025.1.1,144.40891985093305,2026-01-21 17h02.46.639468 -0400,
191,0,191,down,None,0.4253203000002941,None,,,191,0,191,0,245.3846739999999,,,,,,,,,,,,,,,,,,,,245.37836860000016,245.3846739999999,246.2613197999999,246.2531082999999,2,246.2545666000001,246.2613197999999,246.2613197999999,246.75299619999987,246.75299619999987,246.74612849999994,down,246.7461785999999,246.7462042000002,None,0.4253203000002941,None,,,,,,,,,,,005,001,2026-01-21_17h02.26.484,NESC3137_EEG_experiment,,2025.1.1,144.40891985093305,2026-01-21 17h02.46.639468 -0400,
192,0,192,up,None,0.37066409999988537,None,,,192,0,192,0,246.75299619999987,,,,,,,,,,,,,,,,,,,,246.74635990000024,246.75299619999987,247.6917883000001,247.68450540000003,1,247.6864811999999,247.6917883000001,247.6917883000001,248.18376769999986,248.18376769999986,248.17746020000004,up,248.1775077000002,248.1775219000001,None,0.37066409999988537,None,,,,,,,,,,,005,001,2026-01-21_17h02.26.484,NESC3137_EEG_experiment,,2025.1.1,144.40891985093305,2026-01-21 17h02.46.639468 -0400,
193,0,193,up,None,0.43213790000027075,None,,,193,0,193,0,248.18376769999986,,,,,,,,,,,,,,,,,,,,248.17762410000023,248.18376769999986,248.8784509000002,248.87177010000005,1,248.87366479999991,248.8784509000002,248.8784509000002,249.3715900000002,249.3715900000002,249.3655272000001,up,249.3655979,249.3656264000001,None,0.43213790000027075,None,,,,,,,,,,,005,001,2026-01-21_17h02.26.484,NESC3137_EEG_experiment,,2025.1.1,144.40891985093305,2026-01-21 17h02.46.639468 -0400,
194,0,194,up,None,0.40283250000038606,None,,,194,0,194,0,249.3715900000002,,,,,,,,,,,,,,,,,,,,249.3658230000001,249.3715900000002,250.1642041,250.15765360000023,1,250.1594487000002,250.1642041,250.1642041,250.6572586000002,250.6572586000002,250.64943219999986,up,250.64947119999988,250.6494858000001,None,0.40283250000038606,None,,,,,,,,,,,005,001,2026-01-21_17h02.26.484,NESC3137_EEG_experiment,,2025.1.1,144.40891985093305,2026-01-21 17h02.46.639468 -0400,
195,0,195,down,None,0.40413170000010723,None,,,195,0,195,0,250.6572586000002,,,,,,,,,,,,,,,,,,,,250.6495863,250.6572586000002,251.4423658999999,251.43447229999992,2,251.43637070000023,251.4423658999999,251.4423658999999,251.93515690000004,251.93515690000004,251.92830619999995,down,251.9283575999998,251.92838250000023,None,0.40413170000010723,None,,,,,,,,,,,005,001,2026-01-21_17h02.26.484,NESC3137_EEG_experiment,,2025.1.1,144.40891985093305,2026-01-21 17h02.46.639468 -0400,
196,0,196,down,None,0.4559825000001183,None,,,196,0,196,0,251.93515690000004,,,,,,,,,,,,,,,,,,,,251.928539,251.93515690000004,252.67054550000012,252.66414170000007,2,252.6658969,252.67054550000012,252.67054550000012,253.1634752,253.1634752,253.15734900000007,down,253.15740800000003,253.15743500000008,None,0.4559825000001183,None,,,,,,,,,,,005,001,2026-01-21_17h02.26.484,NESC3137_EEG_experiment,,2025.1.1,144.40891985093305,2026-01-21 17h02.46.639468 -0400,
197,0,197,None,None,,,,,197,0,197,0,253.1634752,,,,,,,,,,,,,,,,,,,,253.15761090000024,253.1634752,253.72619940000004,253.71937100000014,1,253.7212838999999,253.72619940000004,253.72619940000004,254.22077420000005,254.22077420000005,254.21259629999986,None,254.2126419000001,254.21266689999993,None,,,,,,,,,,,,,005,001,2026-01-21_17h02.26.484,NESC3137_EEG_experiment,,2025.1.1,144.40891985093305,2026-01-21 17h02.46.639468 -0400,
198,0,198,None,None,,,,,198,0,198,0,254.22077420000005,,,,,,,,,,,,,,,,,,,,254.21282259999998,254.22077420000005,254.9138796000002,254.90691659999993,1,254.9083986999999,254.9138796000002,254.9138796000002,255.4068142000001,255.4068142000001,255.4000903000001,None,255.4001330000001,255.40015870000025,None,,,,,,,,,,,,,005,001,2026-01-21_17h02.26.484,NESC3137_EEG_experiment,,2025.1.1,144.40891985093305,2026-01-21 17h02.46.639468 -0400,
199,0,199,down,None,0.41623269999990953,None,,,199,0,199,0,255.4068142000001,,,,,,,,,,,,,,,,,,,,255.4003117000002,255.4068142000001,256.0946899999999,256.08842570000024,2,256.090909,256.0946899999999,256.0946899999999,256.58870720000004,256.58870720000004,256.58182309999984,down,256.5818628000002,256.58187769999995,None,0.41623269999990953,None,,,,,,,,,,,005,001,2026-01-21_17h02.26.484,NESC3137_EEG_experiment,,2025.1.1,144.40891985093305,2026-01-21 17h02.46.639468 -0400,
200,0,200,down,space,0.41000609999991866,None,3.0597712999997384,None,200,0,200,0,256.58870720000004,,,,,,,,,,,,,,,,,,,,256.58198089999996,256.58870720000004,257.3171120000002,257.31029279999984,2,257.3123061000001,257.3171120000002,257.3171120000002,257.8111573000001,257.8111573000001,257.80358720000004,down,257.8036477999999,290.8636538999999,space,0.41000609999991866,None,257.8111573000001,287.80292210000016,287.80292210000016,287.8075133000002,3.0597712999997384,None,,,,,005,001,2026-01-21_17h02.26.484,NESC3137_EEG_experiment,,2025.1.1,144.40891985093305,2026-01-21 17h02.46.639468 -0400,
201,0,201,None,None,,,,,201,0,201,0,290.86972490000016,,,,,,,,,,,,,,,,,,,,290.8637858000002,290.86972490000016,291.6630432000002,291.65469699999994,2,291.65619890000016,291.6630432000002,291.6630432000002,292.15454910000017,292.15454910000017,292.1489219,None,292.14895579999984,292.14897169999995,None,,,,,,,,,,,,,005,001,2026-01-21_17h02.26.484,NESC3137_EEG_experiment,,2025.1.1,144.40891985093305,2026-01-21 17h02.46.639468 -0400,
202,0,202,up,None,0.422019900000123,None,,,202,0,202,0,292.15454910000017,,,,,,,,,,,,,,,,,,,,292.1490837000001,292.15454910000017,292.69651209999984,292.69083230000024,1,292.69298530000015,292.69651209999984,292.69651209999984,293.1894606999999,293.1894606999999,293.1828135999999,up,293.1828580000001,293.1828716,None,0.422019900000123,None,,,,,,,,,,,005,001,2026-01-21_17h02.26.484,NESC3137_EEG_experiment,,2025.1.1,144.40891985093305,2026-01-21 17h02.46.639468 -0400,
203,0,203,up,None,0.3907454999998663,None,,,203,0,203,0,293.1894606999999,,,,,,,,,,,,,,,,,,,,293.18296980000014,293.1894606999999,294.1278019000001,294.1203945000002,1,294.1220125,294.1278019000001,294.1278019000001,294.6209730999999,294.6209730999999,294.61372029999984,up,294.61375640000006,294.6137699000001,None,0.3907454999998663,None,,,,,,,,,,,005,001,2026-01-21_17h02.26.484,NESC3137_EEG_experiment,,2025.1.1,144.40891985093305,2026-01-21 17h02.46.639468 -0400,
204,0,204,down,None,0.41041760000007343,None,,,204,0,204,0,294.6209730999999,,,,,,,,,,,,,,,,,,,,294.61387349999995,294.6209730999999,295.42010329999994,295.4129797999999,2,295.4146297000002,295.42010329999994,295.42010329999994,295.91210869999986,295.91210869999986,295.90531580000015,down,295.90536740000016,295.90539249999983,None,0.41041760000007343,None,,,,,,,,,,,005,001,2026-01-21_17h02.26.484,NESC3137_EEG_experiment,,2025.1.1,144.40891985093305,2026-01-21 17h02.46.639468 -0400,
205,0,205,down,None,0.37555159999965326,None,,,205,0,205,0,295.91210869999986,,,,,,,,,,,,,,,,,,,,295.9055505000001,295.91210869999986,296.87111460000006,296.86480299999994,2,296.86638429999994,296.87111460000006,296.87111460000006,297.36362039999995,297.36362039999995,297.3581193,down,297.35817320000024,297.3581872,None,0.37555159999965326,None,,,,,,,,,,,005,001,2026-01-21_17h02.26.484,NESC3137_EEG_experiment,,2025.1.1,144.40891985093305,2026-01-21 17h02.46.639468 -0400,
206,0,206,up,None,0.3961236000000099,None,,,206,0,206,0,297.36362039999995,,,,,,,,,,,,,,,,,,,,297.3583033,297.36362039999995,298.3153510000002,298.30965909999986,1,298.3118883000002,298.3153510000002,298.3153510000002,298.80818839999984,298.80818839999984,298.80167200000005,up,298.80172459999994,298.8017519,None,0.3961236000000099,None,,,,,,,,,,,005,001,2026-01-21_17h02.26.484,NESC3137_EEG_experiment,,2025.1.1,144.40891985093305,2026-01-21 17h02.46.639468 -0400,
207,0,207,None,None,,,,,207,0,207,0,298.80818839999984,,,,,,,,,,,,,,,,,,,,298.80190200000015,298.80818839999984,299.76800860000003,299.76127069999984,1,299.76285039999993,299.76800860000003,299.76800860000003,300.26006370000005,300.26006370000005,300.25369550000005,None,300.2537407,300.25377359999993,None,,,,,,,,,,,,,005,001,2026-01-21_17h02.26.484,NESC3137_EEG_experiment,,2025.1.1,144.40891985093305,2026-01-21 17h02.46.639468 -0400,
208,0,208,None,None,,,,,208,0,208,0,300.26006370000005,,,,,,,,,,,,,,,,,,,,300.25396219999993,300.26006370000005,301.0240758,301.01703009999983,1,301.01913969999987,301.0240758,301.0240758,301.51745729999993,301.51745729999993,301.5114053000002,None,301.5114542000001,301.5114735000002,None,,,,,,,,,,,,,005,001,2026-01-21_17h02.26.484,NESC3137_EEG_experiment,,2025.1.1,144.40891985093305,2026-01-21 17h02.46.639468 -0400,
209,0,209,up,None,0.4098004999996192,None,,,209,0,209,0,301.51745729999993,,,,,,,,,,,,,,,,,,,,301.5117194999998,301.51745729999993,302.2127878000001,302.20488860000023,1,302.20651009999983,302.2127878000001,302.2127878000001,302.70460749999984,302.70460749999984,302.69798709999986,up,302.69803809999985,302.6980644,None,0.4098004999996192,None,,,,,,,,,,,005,001,2026-01-21_17h02.26.484,NESC3137_EEG_experiment,,2025.1.1,144.40891985093305,2026-01-21 17h02.46.639468 -0400,
210,0,210,None,None,,,,,210,0,210,0,302.70460749999984,,,,,,,,,,,,,,,,,,,,302.69822350000004,302.70460749999984,303.5522885999999,303.5454985000001,2,303.5472079000001,303.5522885999999,303.5522885999999,304.0453849999999,304.0453849999999,304.03829570000016,None,304.03833840000016,304.0383634,None,,,,,,,,,,,,,005,001,2026-01-21_17h02.26.484,NESC3137_EEG_experiment,,2025.1.1,144.40891985093305,2026-01-21 17h02.46.639468 -0400,
211,0,211,up,None,0.4499749999999949,None,,,211,0,211,0,304.0453849999999,,,,,,,,,,,,,,,,,,,,304.0385202000002,304.0453849999999,304.73282530000006,304.72606210000004,1,304.7278575999999,304.73282530000006,304.73282530000006,305.2261039,305.2261039,305.2189744000002,up,305.2190088000002,305.21902279999995,None,0.4499749999999949,None,,,,,,,,,,,005,001,2026-01-21_17h02.26.484,NESC3137_EEG_experiment,,2025.1.1,144.40891985093305,2026-01-21 17h02.46.639468 -0400,
212,0,212,None,None,,,,,212,0,212,0,305.2261039,,,,,,,,,,,,,,,,,,,,305.21912440000006,305.2261039,305.73988469999995,305.73344989999987,2,305.7351819999999,305.73988469999995,305.73988469999995,306.23296530000016,306.23296530000016,306.2260852999998,None,306.2261288999998,306.22615429999996,None,,,,,,,,,,,,,005,001,2026-01-21_17h02.26.484,NESC3137_EEG_experiment,,2025.1.1,144.40891985093305,2026-01-21 17h02.46.639468 -0400,
213,0,213,None,None,,,,,213,0,213,0,306.23296530000016,,,,,,,,,,,,,,,,,,,,306.2263134,306.23296530000016,306.9692372999998,306.96348130000024,2,306.96629759999996,306.9692372999998,306.9692372999998,307.4623193000002,307.4623193000002,307.4561936,None,307.4562469000002,307.4562633999999,None,,,,,,,,,,,,,005,001,2026-01-21_17h02.26.484,NESC3137_EEG_experiment,,2025.1.1,144.40891985093305,2026-01-21 17h02.46.639468 -0400,
214,0,214,up,None,0.3628011000000697,None,,,214,0,214,0,307.4623193000002,,,,,,,,,,,,,,,,,,,,307.4564098000001,307.4623193000002,308.21991800000023,308.2123735,1,308.2139978,308.21991800000023,308.21991800000023,308.71332900000016,308.71332900000016,308.70578209999985,up,308.7058173999999,308.70583160000024,None,0.3628011000000697,None,,,,,,,,,,,005,001,2026-01-21_17h02.26.484,NESC3137_EEG_experiment,,2025.1.1,144.40891985093305,2026-01-21 17h02.46.639468 -0400,
