thisN,thisTrialN,thisRepN,key_resp_3.keys,key_resp_3.rt,key_resp_3.duration,key_resp_4.keys,key_resp_4.rt,key_resp_4.duration,trials.thisRepN,trials.thisTrialN,trials.thisN,trials.thisIndex,thisRow.t,notes,lsl_stream.started,lsl_stream.stopped,setup.started,setup.stopped,welcome.started,welcomeimg.started,key_resp.started,welcome.stopped,key_resp.keys,key_resp.rt,key_resp.duration,instruction.started,instructionimg.started,key_resp_2.started,instruction.stopped,key_resp_2.keys,key_resp_2.rt,key_resp_2.duration,fixation.started,cross.started,cross.stopped,fixation.stopped,trigger,face.started,faceStim.started,key_resp_3.started,faceStim.stopped,key_resp_3.stopped,face.stopped,trials.key_resp_3.keys,trials.key_resp_3.rt,trials.key_resp_3.duration,break_2.started,break_2.stopped,trials.key_resp_4.keys,breakimg.started,break2img.started,key_resp_4.started,breakimg.stopped,trials.key_resp_4.rt,trials.key_resp_4.duration,end.started,finish.started,end.stopped,participant,session,date,expName,expVersion,psychopyVersion,frameRate,expStart,
,,,,,,,,,,,,,,,0.011558399999557878,0.011619799999607494,,,,,,,,,,,,,,,,,,,,,,,,,,,,,,,,,,,,,,,,,,,009,001,2026-01-28_16h35.35.762,NESC3137_EEG_experiment,,2025.1.1,60.04934855465826,2026-01-28 16h36.01.195585 -0400,
,,,,,,,,,,,,,,,,,0.011637099999461498,0.011657899999590882,,,,,,,,,,,,,,,,,,,,,,,,,,,,,,,,,,,,,,,,,009,001,2026-01-28_16h35.35.762,NESC3137_EEG_experiment,,2025.1.1,60.04934855465826,2026-01-28 16h36.01.195585 -0400,
,,,,,,,,,,,,,,,,,,,0.01171040000008361,0.014525900000080583,0.014525900000080583,8.384178599999359,space,8.351546699999744,None,,,,,,,,,,,,,,,,,,,,,,,,,,,,,,,,,,009,001,2026-01-28_16h35.35.762,NESC3137_EEG_experiment,,2025.1.1,60.04934855465826,2026-01-28 16h36.01.195585 -0400,
,,,,,,,,,,,,,,,,,,,,,,,,,,8.384223899999597,8.39808660000017,8.39808660000017,16.69843260000016,space,8.29596439999932,None,,,,,,,,,,,,,,,,,,,,,,,,,,,009,001,2026-01-28_16h35.35.762,NESC3137_EEG_experiment,,2025.1.1,60.04934855465826,2026-01-28 16h36.01.195585 -0400,
0,0,0,up,0.3658134000006612,None,None,,,0,0,0,0,16.714490599999408,,,,,,,,,,,,,,,,,,,,16.70043059999989,16.714490599999408,17.264237899999898,17.248080299999856,1,17.250126899999486,17.264237899999898,17.264237899999898,17.763950800000202,17.763950800000202,17.748100899999372,up,0.3658134000006612,None,17.748166100000162,17.74820869999985,None,,,,,,,,,,009,001,2026-01-28_16h35.35.762,NESC3137_EEG_experiment,,2025.1.1,60.04934855465826,2026-01-28 16h36.01.195585 -0400,
1,0,1,down,0.4351579000003767,None,None,,,1,0,1,0,17.763950800000202,,,,,,,,,,,,,,,,,,,,17.7484072999996,17.763950800000202,18.33095409999987,18.314339499999733,2,18.31720099999984,18.33095409999987,18.33095409999987,18.831072899999526,18.831072899999526,18.814427100000103,down,0.4351579000003767,None,18.81448829999954,18.814520599999923,None,,,,,,,,,,009,001,2026-01-28_16h35.35.762,NESC3137_EEG_experiment,,2025.1.1,60.04934855465826,2026-01-28 16h36.01.195585 -0400,
2,0,2,None,,,None,,,2,0,2,0,18.831072899999526,,,,,,,,,,,,,,,,,,,,18.814712499999587,18.831072899999526,19.531171099999483,19.51498999999967,2,19.51744679999956,19.531171099999483,19.531171099999483,20.0305472,20.0305472,20.01463059999969,None,,,20.01468179999938,20.014713599999595,None,,,,,,,,,,009,001,2026-01-28_16h35.35.762,NESC3137_EEG_experiment,,2025.1.1,60.04934855465826,2026-01-28 16h36.01.195585 -0400,
3,0,3,down,0.38835000000017317,None,None,,,3,0,3,0,20.0305472,,,,,,,,,,,,,,,,,,,,20.014897199999723,20.0305472,20.897603499999605,20.88162310000007,2,20.8836553000001,20.897603499999605,20.897603499999605,21.397781499999837,21.397781499999837,21.381592799999453,down,0.38835000000017317,None,21.381634200000008,21.381651699999566,None,,,,,,,,,,009,001,2026-01-28_16h35.35.762,NESC3137_EEG_experiment,,2025.1.1,60.04934855465826,2026-01-28 16h36.01.195585 -0400,
4,0,4,down,0.40254749999985506,None,None,,,4,0,4,0,21.397781499999837,,,,,,,,,,,,,,,,,,,,21.381774999999834,21.397781499999837,21.931387799999357,21.914906699999847,2,21.91708159999962,21.931387799999357,21.931387799999357,22.431158599999435,22.431158599999435,22.414606399999684,down,0.40254749999985506,None,22.414646499999435,22.41466429999946,None,,,,,,,,,,009,001,2026-01-28_16h35.35.762,NESC3137_EEG_experiment,,2025.1.1,60.04934855465826,2026-01-28 16h36.01.195585 -0400,
5,0,5,None,,,None,,,5,0,5,0,22.431158599999435,,,,,,,,,,,,,,,,,,,,22.414782799999557,22.431158599999435,23.347714300000007,23.331376299999647,1,23.333650699999453,23.347714300000007,23.347714300000007,,,23.831606499999907,None,,,23.83166639999945,23.831699399999707,None,,,,,,,,,,009,001,2026-01-28_16h35.35.762,NESC3137_EEG_experiment,,2025.1.1,60.04934855465826,2026-01-28 16h36.01.195585 -0400,
6,0,6,None,,,None,,,6,0,6,0,23.847711399999753,,,,,,,,,,,,,,,,,,,,23.831880499999897,23.847711399999753,24.547638500000176,24.53141079999932,1,24.53420069999993,24.547638500000176,24.547638500000176,25.04736580000008,25.04736580000008,25.03112979999969,None,,,25.031178100000034,25.031210799999826,None,,,,,,,,,,009,001,2026-01-28_16h35.35.762,NESC3137_EEG_experiment,,2025.1.1,60.04934855465826,2026-01-28 16h36.01.195585 -0400,
7,0,7,up,0.42738229999940813,None,None,,,7,0,7,0,25.04736580000008,,,,,,,,,,,,,,,,,,,,25.031390099999953,25.04736580000008,25.73060269999951,25.71450679999998,1,25.717034299999796,25.73060269999951,25.73060269999951,26.230692199999794,26.230692199999794,26.21424549999938,up,0.42738229999940813,None,26.21430809999947,26.21434009999939,None,,,,,,,,,,009,001,2026-01-28_16h35.35.762,NESC3137_EEG_experiment,,2025.1.1,60.04934855465826,2026-01-28 16h36.01.195585 -0400,
8,0,8,None,,,None,,,8,0,8,0,26.230692199999794,,,,,,,,,,,,,,,,,,,,26.21462220000012,26.230692199999794,27.0141679999997,26.997839399999975,1,27.000455200000033,27.0141679999997,27.0141679999997,27.51397149999957,27.51397149999957,27.497825099999318,None,,,27.49787329999981,27.497905499999433,None,,,,,,,,,,009,001,2026-01-28_16h35.35.762,NESC3137_EEG_experiment,,2025.1.1,60.04934855465826,2026-01-28 16h36.01.195585 -0400,
9,0,9,up,0.3903149999996458,None,None,,,9,0,9,0,27.51397149999957,,,,,,,,,,,,,,,,,,,,27.498085000000174,27.51397149999957,28.447825199999897,28.43138099999942,2,28.433506800000032,28.447825199999897,28.447825199999897,28.94746369999939,28.94746369999939,28.93147669999962,up,0.3903149999996458,None,28.931528600000092,28.9315574000002,None,,,,,,,,,,009,001,2026-01-28_16h35.35.762,NESC3137_EEG_experiment,,2025.1.1,60.04934855465826,2026-01-28 16h36.01.195585 -0400,
10,0,10,None,,,None,,,10,0,10,0,28.94746369999939,,,,,,,,,,,,,,,,,,,,28.93168229999992,28.94746369999939,29.698019999999815,29.681301099999473,1,29.683316999999988,29.698019999999815,29.698019999999815,30.198048799999924,30.198048799999924,30.18130299999939,None,,,30.181340199999795,30.18135749999965,None,,,,,,,,,,009,001,2026-01-28_16h35.35.762,NESC3137_EEG_experiment,,2025.1.1,60.04934855465826,2026-01-28 16h36.01.195585 -0400,
11,0,11,None,,,None,,,11,0,11,0,30.198048799999924,,,,,,,,,,,,,,,,,,,,30.181488100000024,30.198048799999924,30.93088059999991,30.91462009999941,2,30.916872899999362,30.93088059999991,30.93088059999991,31.430635099999563,31.430635099999563,31.414224199999808,None,,,31.414272699999856,31.41430390000005,None,,,,,,,,,,009,001,2026-01-28_16h35.35.762,NESC3137_EEG_experiment,,2025.1.1,60.04934855465826,2026-01-28 16h36.01.195585 -0400,
12,0,12,up,0.4255603000001429,None,None,,,12,0,12,0,31.430635099999563,,,,,,,,,,,,,,,,,,,,31.414485599999352,31.430635099999563,31.964485200000126,31.94783490000009,1,31.950047799999993,31.964485200000126,31.964485200000126,32.4644301999997,32.4644301999997,32.447942099999636,up,0.4255603000001429,None,32.44798399999945,32.44800169999962,None,,,,,,,,,,009,001,2026-01-28_16h35.35.762,NESC3137_EEG_experiment,,2025.1.1,60.04934855465826,2026-01-28 16h36.01.195585 -0400,
13,0,13,down,0.33982509999987087,0.11997509999946487,None,,,13,0,13,0,32.4644301999997,,,,,,,,,,,,,,,,,,,,32.44812480000019,32.4644301999997,33.298241899999994,33.281294100000196,2,33.28409009999996,33.298241899999994,33.298241899999994,33.79772950000006,33.79772950000006,33.78122649999932,down,0.33982509999987087,0.11997509999946487,33.78128509999988,33.7813170999998,None,,,,,,,,,,009,001,2026-01-28_16h35.35.762,NESC3137_EEG_experiment,,2025.1.1,60.04934855465826,2026-01-28 16h36.01.195585 -0400,
14,0,14,down,0.38543099999969854,None,None,,,14,0,14,0,33.79772950000006,,,,,,,,,,,,,,,,,,,,33.781499099999564,33.79772950000006,34.56459429999995,34.54830039999979,2,34.55044519999956,34.56459429999995,34.56459429999995,35.064469999999346,35.064469999999346,35.048288399999365,down,0.38543099999969854,None,35.04832979999992,35.04834699999992,None,,,,,,,,,,009,001,2026-01-28_16h35.35.762,NESC3137_EEG_experiment,,2025.1.1,60.04934855465826,2026-01-28 16h36.01.195585 -0400,
15,0,15,down,0.368931099999827,None,None,,,15,0,15,0,35.064469999999346,,,,,,,,,,,,,,,,,,,,35.04846619999989,35.064469999999346,35.98098029999983,35.96442839999963,1,35.96647159999975,35.98098029999983,35.98098029999983,36.48051679999935,36.48051679999935,36.464496300000064,down,0.368931099999827,None,36.46453500000007,36.46455280000009,None,,,,,,,,,,009,001,2026-01-28_16h35.35.762,NESC3137_EEG_experiment,,2025.1.1,60.04934855465826,2026-01-28 16h36.01.195585 -0400,
16,0,16,None,,,None,,,16,0,16,0,36.48051679999935,,,,,,,,,,,,,,,,,,,,36.46467669999947,36.48051679999935,37.13089519999994,37.114692999999534,2,37.11712879999959,37.13089519999994,37.13089519999994,37.63054049999937,37.63054049999937,37.61462109999957,None,,,37.61467159999938,37.61470289999943,None,,,,,,,,,,009,001,2026-01-28_16h35.35.762,NESC3137_EEG_experiment,,2025.1.1,60.04934855465826,2026-01-28 16h36.01.195585 -0400,
17,0,17,None,,,None,,,17,0,17,0,37.63054049999937,,,,,,,,,,,,,,,,,,,,37.61488629999985,37.63054049999937,38.33092579999993,38.31470249999984,1,38.317091799999616,38.33092579999993,38.33092579999993,,,38.81490339999982,None,,,38.81496470000002,38.815002399999685,None,,,,,,,,,,009,001,2026-01-28_16h35.35.762,NESC3137_EEG_experiment,,2025.1.1,60.04934855465826,2026-01-28 16h36.01.195585 -0400,
18,0,18,None,,,None,,,18,0,18,0,38.83107349999955,,,,,,,,,,,,,,,,,,,,38.815152999999555,38.83107349999955,39.647598699999435,39.6313913999993,2,39.633360199999515,39.647598699999435,39.647598699999435,40.147768499999984,40.147768499999984,40.13159749999977,None,,,40.13163660000009,40.131662299999334,None,,,,,,,,,,009,001,2026-01-28_16h35.35.762,NESC3137_EEG_experiment,,2025.1.1,60.04934855465826,2026-01-28 16h36.01.195585 -0400,
19,0,19,None,,,None,,,19,0,19,0,40.147768499999984,,,,,,,,,,,,,,,,,,,,40.131784199999856,40.147768499999984,40.68060859999969,40.66468910000003,1,40.666587400000026,40.68060859999969,40.68060859999969,41.1812546000001,41.1812546000001,41.1643438000001,None,,,41.164391799999976,41.164423299999726,None,,,,,,,,,,009,001,2026-01-28_16h35.35.762,NESC3137_EEG_experiment,,2025.1.1,60.04934855465826,2026-01-28 16h36.01.195585 -0400,
20,0,20,down,0.4317854000000807,None,None,,,20,0,20,0,41.1812546000001,,,,,,,,,,,,,,,,,,,,41.16459639999994,41.1812546000001,41.81420619999972,41.797856299999694,1,41.80010039999979,41.81420619999972,41.81420619999972,42.31462079999983,42.31462079999983,42.29797959999996,down,0.4317854000000807,None,42.298022500000116,42.298039599999356,None,,,,,,,,,,009,001,2026-01-28_16h35.35.762,NESC3137_EEG_experiment,,2025.1.1,60.04934855465826,2026-01-28 16h36.01.195585 -0400,
21,0,21,None,,,None,,,21,0,21,0,42.31462079999983,,,,,,,,,,,,,,,,,,,,42.298183799999606,42.31462079999983,42.864432399999714,42.84801659999994,2,42.850142599999344,42.864432399999714,42.864432399999714,43.364528099999916,43.364528099999916,43.34803699999975,None,,,43.34808249999969,43.34811059999993,None,,,,,,,,,,009,001,2026-01-28_16h35.35.762,NESC3137_EEG_experiment,,2025.1.1,60.04934855465826,2026-01-28 16h36.01.195585 -0400,
22,0,22,None,,,None,,,22,0,22,0,43.364528099999916,,,,,,,,,,,,,,,,,,,,43.34827719999976,43.364528099999916,44.09736189999967,44.08109499999955,1,44.08294609999939,44.09736189999967,44.09736189999967,44.597390500000074,44.597390500000074,44.580849599999965,None,,,44.58090039999934,44.58095249999951,None,,,,,,,,,,009,001,2026-01-28_16h35.35.762,NESC3137_EEG_experiment,,2025.1.1,60.04934855465826,2026-01-28 16h36.01.195585 -0400,
23,0,23,None,,,None,,,23,0,23,0,44.597390500000074,,,,,,,,,,,,,,,,,,,,44.58118849999937,44.597390500000074,45.44774359999974,45.431361599999946,2,45.43358189999981,45.44774359999974,45.44774359999974,45.94771209999999,45.94771209999999,45.93148310000015,None,,,45.931531899999754,45.93156420000014,None,,,,,,,,,,009,001,2026-01-28_16h35.35.762,NESC3137_EEG_experiment,,2025.1.1,60.04934855465826,2026-01-28 16h36.01.195585 -0400,
24,0,24,None,,,None,,,24,0,24,0,45.94771209999999,,,,,,,,,,,,,,,,,,,,45.931765399999676,45.94771209999999,46.68060489999971,46.664033399999425,2,46.66669939999974,46.68060489999971,46.68060489999971,,,47.164259799999854,None,,,47.16433640000014,47.164374599999974,None,,,,,,,,,,009,001,2026-01-28_16h35.35.762,NESC3137_EEG_experiment,,2025.1.1,60.04934855465826,2026-01-28 16h36.01.195585 -0400,
25,0,25,None,,,None,,,25,0,25,0,47.18107830000008,,,,,,,,,,,,,,,,,,,,47.16457780000019,47.18107830000008,48.13116959999934,48.114892300000065,1,48.11691449999944,48.13116959999934,48.13116959999934,48.631410799999685,48.631410799999685,48.614780099999734,None,,,48.614842699999826,48.614861799999744,None,,,,,,,,,,009,001,2026-01-28_16h35.35.762,NESC3137_EEG_experiment,,2025.1.1,60.04934855465826,2026-01-28 16h36.01.195585 -0400,
26,0,26,up,0.4425989999999729,None,None,,,26,0,26,0,48.631410799999685,,,,,,,,,,,,,,,,,,,,48.61502269999983,48.631410799999685,49.14760179999939,49.13119329999972,1,49.133442999999716,49.14760179999939,49.14760179999939,49.64729979999993,49.64729979999993,49.63108680000005,up,0.4425989999999729,None,49.63114069999938,49.63116949999949,None,,,,,,,,,,009,001,2026-01-28_16h35.35.762,NESC3137_EEG_experiment,,2025.1.1,60.04934855465826,2026-01-28 16h36.01.195585 -0400,
27,0,27,up,0.4481133999997837,None,None,,,27,0,27,0,49.64729979999993,,,,,,,,,,,,,,,,,,,,49.63134039999932,49.64729979999993,50.39790919999996,50.38129029999982,1,50.38310939999974,50.39790919999996,50.39790919999996,50.89757719999943,50.89757719999943,50.88138809999964,up,0.4481133999997837,None,50.881447099999605,50.881479199999376,None,,,,,,,,,,009,001,2026-01-28_16h35.35.762,NESC3137_EEG_experiment,,2025.1.1,60.04934855465826,2026-01-28 16h36.01.195585 -0400,
28,0,28,up,0.46066030000019964,None,None,,,28,0,28,0,50.89757719999943,,,,,,,,,,,,,,,,,,,,50.88166480000018,50.89757719999943,51.89732079999976,51.88176999999996,1,51.883910800000194,51.89732079999976,51.89732079999976,52.39802529999997,52.39802529999997,52.3812997999994,up,0.46066030000019964,None,52.38134809999974,52.38136560000021,None,,,,,,,,,,009,001,2026-01-28_16h35.35.762,NESC3137_EEG_experiment,,2025.1.1,60.04934855465826,2026-01-28 16h36.01.195585 -0400,
29,0,29,None,,,None,,,29,0,29,0,52.39802529999997,,,,,,,,,,,,,,,,,,,,52.38150649999989,52.39802529999997,52.96468790000017,52.94795889999932,1,52.95003949999955,52.96468790000017,52.96468790000017,,,53.44849559999966,None,,,53.448558399999456,53.44857979999961,None,,,,,,,,,,009,001,2026-01-28_16h35.35.762,NESC3137_EEG_experiment,,2025.1.1,60.04934855465826,2026-01-28 16h36.01.195585 -0400,
30,0,30,up,0.37527070000032836,None,None,,,30,0,30,0,53.464587099999335,,,,,,,,,,,,,,,,,,,,53.448754399999416,53.464587099999335,54.23112619999938,54.214743599999565,1,54.216631100000086,54.23112619999938,54.23112619999938,54.73126880000018,54.73126880000018,54.714729199999965,up,0.37527070000032836,None,54.714777199999844,54.7147946999994,None,,,,,,,,,,009,001,2026-01-28_16h35.35.762,NESC3137_EEG_experiment,,2025.1.1,60.04934855465826,2026-01-28 16h36.01.195585 -0400,
31,0,31,down,0.38880539999991015,None,None,,,31,0,31,0,54.73126880000018,,,,,,,,,,,,,,,,,,,,54.71492269999999,54.73126880000018,55.4813065999997,55.46475439999995,2,55.46695389999968,55.4813065999997,55.4813065999997,55.98082449999947,55.98082449999947,55.964265599999635,down,0.38880539999991015,None,55.964324300000044,55.96438479999961,None,,,,,,,,,,009,001,2026-01-28_16h35.35.762,NESC3137_EEG_experiment,,2025.1.1,60.04934855465826,2026-01-28 16h36.01.195585 -0400,
32,0,32,down,0.4110909000000902,None,None,,,32,0,32,0,55.98082449999947,,,,,,,,,,,,,,,,,,,,55.964530999999624,55.98082449999947,56.73120639999979,56.714992999999595,2,56.71773479999956,56.73120639999979,56.73120639999979,57.23097549999966,57.23097549999966,57.214638399999785,down,0.4110909000000902,None,57.21468089999962,57.21469909999996,None,,,,,,,,,,009,001,2026-01-28_16h35.35.762,NESC3137_EEG_experiment,,2025.1.1,60.04934855465826,2026-01-28 16h36.01.195585 -0400,
33,0,33,up,0.46249640000041836,None,None,,,33,0,33,0,57.23097549999966,,,,,,,,,,,,,,,,,,,,57.2148373,57.23097549999966,58.04762019999998,58.03090400000019,1,58.033557499999915,58.04762019999998,58.04762019999998,,,58.53168969999933,up,0.46249640000041836,None,58.531766199999765,58.53180400000019,None,,,,,,,,,,009,001,2026-01-28_16h35.35.762,NESC3137_EEG_experiment,,2025.1.1,60.04934855465826,2026-01-28 16h36.01.195585 -0400,
34,0,34,down,0.3713041000000885,None,None,,,34,0,34,0,58.54794419999962,,,,,,,,,,,,,,,,,,,,58.53201959999933,58.54794419999962,59.114927599999646,59.097965799999656,2,59.09976629999983,59.114927599999646,59.114927599999646,59.61392369999976,59.61392369999976,59.59818429999996,down,0.3713041000000885,None,59.59825159999946,59.59827140000016,None,,,,,,,,,,009,001,2026-01-28_16h35.35.762,NESC3137_EEG_experiment,,2025.1.1,60.04934855465826,2026-01-28 16h36.01.195585 -0400,
35,0,35,down,0.4262816999998904,None,None,,,35,0,35,0,59.61392369999976,,,,,,,,,,,,,,,,,,,,59.59840459999941,59.61392369999976,60.3477026999999,60.33114250000017,1,60.33342269999957,60.3477026999999,60.3477026999999,60.847602599999846,60.847602599999846,60.831359699999666,down,0.4262816999998904,None,60.831426899999315,60.831459500000165,None,,,,,,,,,,009,001,2026-01-28_16h35.35.762,NESC3137_EEG_experiment,,2025.1.1,60.04934855465826,2026-01-28 16h36.01.195585 -0400,
36,0,36,None,,,None,,,36,0,36,0,60.847602599999846,,,,,,,,,,,,,,,,,,,,60.83168879999994,60.847602599999846,61.697849700000006,61.680905999999595,1,61.68346829999973,61.697849700000006,61.697849700000006,,,62.1810303000002,None,,,62.181084400000145,62.18111919999956,None,,,,,,,,,,009,001,2026-01-28_16h35.35.762,NESC3137_EEG_experiment,,2025.1.1,60.04934855465826,2026-01-28 16h36.01.195585 -0400,
37,0,37,down,0.38094790000013745,None,None,,,37,0,37,0,62.19726549999996,,,,,,,,,,,,,,,,,,,,62.18129719999979,62.19726549999996,62.88097629999993,62.86456420000013,2,62.86684289999994,62.88097629999993,62.88097629999993,63.38056150000011,63.38056150000011,63.36455079999996,down,0.38094790000013745,None,63.36459389999982,63.36461109999982,None,,,,,,,,,,009,001,2026-01-28_16h35.35.762,NESC3137_EEG_experiment,,2025.1.1,60.04934855465826,2026-01-28 16h36.01.195585 -0400,
38,0,38,down,0.4215790999996898,None,None,,,38,0,38,0,63.38056150000011,,,,,,,,,,,,,,,,,,,,63.364741200000026,63.38056150000011,64.2644049999999,64.24746069999946,2,64.24923459999991,64.2644049999999,64.2644049999999,,,64.74790489999941,down,0.4215790999996898,None,64.74797579999995,64.74801549999938,None,,,,,,,,,,009,001,2026-01-28_16h35.35.762,NESC3137_EEG_experiment,,2025.1.1,60.04934855465826,2026-01-28 16h36.01.195585 -0400,
39,0,39,None,,,None,,,39,0,39,0,64.76429139999982,,,,,,,,,,,,,,,,,,,,64.74821319999955,64.76429139999982,65.66469879999931,65.64838210000016,1,65.65049569999974,65.66469879999931,65.66469879999931,66.16446499999984,66.16446499999984,66.14786730000014,None,,,66.1478991999993,66.1479161999996,None,,,,,,,,,,009,001,2026-01-28_16h35.35.762,NESC3137_EEG_experiment,,2025.1.1,60.04934855465826,2026-01-28 16h36.01.195585 -0400,
40,0,40,None,,,None,,,40,0,40,0,66.16446499999984,,,,,,,,,,,,,,,,,,,,66.1480249999995,66.16446499999984,66.93108239999947,66.91462559999945,2,66.91683069999999,66.93108239999947,66.93108239999947,67.4311404,67.4311404,67.41425979999985,None,,,67.41436009999961,67.41440629999943,None,,,,,,,,,,009,001,2026-01-28_16h35.35.762,NESC3137_EEG_experiment,,2025.1.1,60.04934855465826,2026-01-28 16h36.01.195585 -0400,
41,0,41,down,0.3819607999994332,None,None,,,41,0,41,0,67.4311404,,,,,,,,,,,,,,,,,,,,67.41454509999949,67.4311404,68.06413350000003,68.04755959999966,2,68.04949679999936,68.06413350000003,68.06413350000003,68.5646998000002,68.5646998000002,68.54765029999999,down,0.3819607999994332,None,68.54771689999961,68.54774980000002,None,,,,,,,,,,009,001,2026-01-28_16h35.35.762,NESC3137_EEG_experiment,,2025.1.1,60.04934855465826,2026-01-28 16h36.01.195585 -0400,
42,0,42,up,0.4631167999996251,None,None,,,42,0,42,0,68.5646998000002,,,,,,,,,,,,,,,,,,,,68.54794899999979,68.5646998000002,69.43089270000019,69.41460629999983,1,69.41664760000003,69.43089270000019,69.43089270000019,69.93088959999932,69.93088959999932,69.9145869999993,up,0.4631167999996251,None,69.91464739999992,69.91467589999957,None,,,,,,,,,,009,001,2026-01-28_16h35.35.762,NESC3137_EEG_experiment,,2025.1.1,60.04934855465826,2026-01-28 16h36.01.195585 -0400,
43,0,43,None,,,None,,,43,0,43,0,69.93088959999932,,,,,,,,,,,,,,,,,,,,69.9148452999998,69.93088959999932,70.54778089999945,70.53075540000009,2,70.53265639999972,70.54778089999945,70.54778089999945,,,71.03131919999942,None,,,71.03138469999976,71.03142070000013,None,,,,,,,,,,009,001,2026-01-28_16h35.35.762,NESC3137_EEG_experiment,,2025.1.1,60.04934855465826,2026-01-28 16h36.01.195585 -0400,
44,0,44,None,,,None,,,44,0,44,0,71.04765179999958,,,,,,,,,,,,,,,,,,,,71.0316273999997,71.04765179999958,71.7645806999999,71.74828819999948,1,71.75094309999986,71.7645806999999,71.7645806999999,72.26431419999972,72.26431419999972,72.24816159999955,None,,,72.2482086,72.24822929999937,None,,,,,,,,,,009,001,2026-01-28_16h35.35.762,NESC3137_EEG_experiment,,2025.1.1,60.04934855465826,2026-01-28 16h36.01.195585 -0400,
45,0,45,down,0.3817602999997689,None,None,,,45,0,45,0,72.26431419999972,,,,,,,,,,,,,,,,,,,,72.24835119999989,72.26431419999972,73.2642520999998,73.24797320000016,2,73.25016999999934,73.2642520999998,73.2642520999998,,,73.74813619999986,down,0.3817602999997689,None,73.74820649999947,73.7482288000001,None,,,,,,,,,,009,001,2026-01-28_16h35.35.762,NESC3137_EEG_experiment,,2025.1.1,60.04934855465826,2026-01-28 16h36.01.195585 -0400,
46,0,46,None,,,None,,,46,0,46,0,73.7648337999999,,,,,,,,,,,,,,,,,,,,73.74838999999974,73.7648337999999,74.69782529999975,74.68152999999984,1,74.68468070000017,74.69782529999975,74.69782529999975,75.19789209999999,75.19789209999999,75.18148199999996,None,,,75.18153419999999,75.18156670000008,None,,,,,,,,,,009,001,2026-01-28_16h35.35.762,NESC3137_EEG_experiment,,2025.1.1,60.04934855465826,2026-01-28 16h36.01.195585 -0400,
47,0,47,None,,,None,,,47,0,47,0,75.19789209999999,,,,,,,,,,,,,,,,,,,,75.1817476999995,75.19789209999999,75.9311674999999,75.91465049999988,1,75.91693380000015,75.9311674999999,75.9311674999999,76.43055279999953,76.43055279999953,76.41453769999953,None,,,76.41458419999981,76.41461619999973,None,,,,,,,,,,009,001,2026-01-28_16h35.35.762,NESC3137_EEG_experiment,,2025.1.1,60.04934855465826,2026-01-28 16h36.01.195585 -0400,
48,0,48,None,,,None,,,48,0,48,0,76.43055279999953,,,,,,,,,,,,,,,,,,,,76.4147927999993,76.43055279999953,77.11434099999951,77.09790129999965,1,77.10089319999952,77.11434099999951,77.11434099999951,,,77.59804089999943,None,,,77.59812150000016,77.5981584000001,None,,,,,,,,,,009,001,2026-01-28_16h35.35.762,NESC3137_EEG_experiment,,2025.1.1,60.04934855465826,2026-01-28 16h36.01.195585 -0400,
49,0,49,None,,,None,,,49,0,49,0,77.61462409999967,,,,,,,,,,,,,,,,,,,,77.59838390000004,77.61462409999967,78.19770329999938,78.18143919999966,2,78.18390499999987,78.19770329999938,78.19770329999938,78.69813720000002,78.69813720000002,78.6810747999998,None,,,78.68111559999943,78.68113519999952,None,,,,,,,,,,009,001,2026-01-28_16h35.35.762,NESC3137_EEG_experiment,,2025.1.1,60.04934855465826,2026-01-28 16h36.01.195585 -0400,
50,0,50,None,,,None,,,50,0,50,0,78.69813720000002,,,,,,,,,,,,,,,,,,,,78.68127490000006,78.69813720000002,79.3975120999994,79.3814610999998,1,79.38366249999945,79.3975120999994,79.3975120999994,79.89773439999954,79.89773439999954,79.8816625999998,None,,,79.88171429999966,79.8817398000001,None,,,,,,,,,,009,001,2026-01-28_16h35.35.762,NESC3137_EEG_experiment,,2025.1.1,60.04934855465826,2026-01-28 16h36.01.195585 -0400,
51,0,51,None,,,None,,,51,0,51,0,79.89773439999954,,,,,,,,,,,,,,,,,,,,79.88192739999977,79.89773439999954,80.83096579999983,80.81488159999935,2,80.81684319999931,80.83096579999983,80.83096579999983,81.33115889999954,81.33115889999954,81.31476829999974,None,,,81.31482139999935,81.31485429999975,None,,,,,,,,,,009,001,2026-01-28_16h35.35.762,NESC3137_EEG_experiment,,2025.1.1,60.04934855465826,2026-01-28 16h36.01.195585 -0400,
52,0,52,up,0.4606819999999061,None,None,,,52,0,52,0,81.33115889999954,,,,,,,,,,,,,,,,,,,,81.31504739999946,81.33115889999954,81.88124890000017,81.86484310000014,1,81.86730709999938,81.88124890000017,81.88124890000017,82.38058579999961,82.38058579999961,82.36412889999974,up,0.4606819999999061,None,82.3641975999999,82.36423120000018,None,,,,,,,,,,009,001,2026-01-28_16h35.35.762,NESC3137_EEG_experiment,,2025.1.1,60.04934855465826,2026-01-28 16h36.01.195585 -0400,
53,0,53,down,0.36227599999983795,None,None,,,53,0,53,0,82.38058579999961,,,,,,,,,,,,,,,,,,,,82.36448029999974,82.38058579999961,83.34772919999978,83.33149239999966,2,83.33362519999991,83.34772919999978,83.34772919999978,83.84791289999976,83.84791289999976,83.83161500000006,down,0.36227599999983795,None,83.83167189999949,83.83170220000011,None,,,,,,,,,,009,001,2026-01-28_16h35.35.762,NESC3137_EEG_experiment,,2025.1.1,60.04934855465826,2026-01-28 16h36.01.195585 -0400,
54,0,54,None,,,None,,,54,0,54,0,83.84791289999976,,,,,,,,,,,,,,,,,,,,83.83188530000007,83.84791289999976,84.49773199999981,84.48135689999981,2,84.48349309999958,84.49773199999981,84.49773199999981,84.99756389999948,84.99756389999948,84.9813538999997,None,,,84.98139689999971,84.98141459999988,None,,,,,,,,,,009,001,2026-01-28_16h35.35.762,NESC3137_EEG_experiment,,2025.1.1,60.04934855465826,2026-01-28 16h36.01.195585 -0400,
55,0,55,down,0.4607897999994748,None,None,,,55,0,55,0,84.99756389999948,,,,,,,,,,,,,,,,,,,,84.9815606000002,84.99756389999948,85.88115130000006,85.86493379999956,2,85.86806389999947,85.88115130000006,85.88115130000006,86.38096589999986,86.38096589999986,86.36473409999962,down,0.4607897999994748,None,86.36479299999974,86.36482399999932,None,,,,,,,,,,009,001,2026-01-28_16h35.35.762,NESC3137_EEG_experiment,,2025.1.1,60.04934855465826,2026-01-28 16h36.01.195585 -0400,
56,0,56,down,0.35759299999972427,None,None,,,56,0,56,0,86.38096589999986,,,,,,,,,,,,,,,,,,,,86.36502719999953,86.38096589999986,87.06433749999997,87.04781790000015,2,87.05011819999982,87.06433749999997,87.06433749999997,87.56398439999975,87.56398439999975,87.54780990000017,down,0.35759299999972427,None,87.54786929999955,87.5479005999996,None,,,,,,,,,,009,001,2026-01-28_16h35.35.762,NESC3137_EEG_experiment,,2025.1.1,60.04934855465826,2026-01-28 16h36.01.195585 -0400,
57,0,57,down,0.3152370999996492,0.1440229999998337,None,,,57,0,57,0,87.56398439999975,,,,,,,,,,,,,,,,,,,,87.54808569999932,87.56398439999975,88.53073799999947,88.51466290000008,2,88.51672879999933,88.53073799999947,88.53073799999947,89.03103339999961,89.03103339999961,89.01478059999954,down,0.3152370999996492,0.1440229999998337,89.01482109999961,89.01484029999938,None,,,,,,,,,,009,001,2026-01-28_16h35.35.762,NESC3137_EEG_experiment,,2025.1.1,60.04934855465826,2026-01-28 16h36.01.195585 -0400,
58,0,58,down,0.3719837999997253,None,None,,,58,0,58,0,89.03103339999961,,,,,,,,,,,,,,,,,,,,89.01497759999984,89.03103339999961,89.91389009999966,89.89846129999933,2,89.90135819999978,89.91389009999966,89.91389009999966,90.41459599999962,90.41459599999962,90.39802569999938,down,0.3719837999997253,None,90.39808439999979,90.39811519999967,None,,,,,,,,,,009,001,2026-01-28_16h35.35.762,NESC3137_EEG_experiment,,2025.1.1,60.04934855465826,2026-01-28 16h36.01.195585 -0400,
59,0,59,None,,,None,,,59,0,59,0,90.41459599999962,,,,,,,,,,,,,,,,,,,,90.39830939999956,90.41459599999962,91.13084199999957,91.11468309999964,2,91.1171674999996,91.13084199999957,91.13084199999957,91.63128210000013,91.63128210000013,91.6144420999999,None,,,91.61449899999934,91.6145407999993,None,,,,,,,,,,009,001,2026-01-28_16h35.35.762,NESC3137_EEG_experiment,,2025.1.1,60.04934855465826,2026-01-28 16h36.01.195585 -0400,
60,0,60,up,0.3368986000004952,None,None,,,60,0,60,0,91.63128210000013,,,,,,,,,,,,,,,,,,,,91.61478119999992,91.63128210000013,92.38104380000004,92.36470800000006,1,92.36732049999955,92.38104380000004,92.38104380000004,,,92.86482369999976,up,0.3368986000004952,None,92.86488519999966,92.86490799999956,None,,,,,,,,,,009,001,2026-01-28_16h35.35.762,NESC3137_EEG_experiment,,2025.1.1,60.04934855465826,2026-01-28 16h36.01.195585 -0400,
61,0,61,down,0.3346887000006973,None,None,,,61,0,61,0,92.88138009999966,,,,,,,,,,,,,,,,,,,,92.86510809999982,92.88138009999966,93.8472458999995,93.83138409999992,2,93.83367069999986,93.8472458999995,93.8472458999995,94.34796949999964,94.34796949999964,94.33166919999985,down,0.3346887000006973,None,94.3317390000002,94.33176809999986,None,,,,,,,,,,009,001,2026-01-28_16h35.35.762,NESC3137_EEG_experiment,,2025.1.1,60.04934855465826,2026-01-28 16h36.01.195585 -0400,
62,0,62,up,0.367964099999881,None,None,,,62,0,62,0,94.34796949999964,,,,,,,,,,,,,,,,,,,,94.33193469999969,94.34796949999964,95.21419359999982,95.19740009999987,1,95.20028989999992,95.21419359999982,95.21419359999982,,,95.69767700000011,up,0.367964099999881,None,95.69774629999938,95.69778289999977,None,,,,,,,,,,009,001,2026-01-28_16h35.35.762,NESC3137_EEG_experiment,,2025.1.1,60.04934855465826,2026-01-28 16h36.01.195585 -0400,
63,0,63,up,0.4342942999992374,None,None,,,63,0,63,0,95.71387090000007,,,,,,,,,,,,,,,,,,,,95.6979808999995,95.71387090000007,96.54767790000005,96.53127679999943,1,96.53359459999956,96.54767790000005,96.54767790000005,97.04756709999947,97.04756709999947,97.03135889999976,up,0.4342942999992374,None,97.03142049999951,97.0314515,None,,,,,,,,,,009,001,2026-01-28_16h35.35.762,NESC3137_EEG_experiment,,2025.1.1,60.04934855465826,2026-01-28 16h36.01.195585 -0400,
64,0,64,up,0.438213899999937,None,None,,,64,0,64,0,97.04756709999947,,,,,,,,,,,,,,,,,,,,97.03163159999986,97.04756709999947,97.84782970000015,97.83132949999981,1,97.83363240000017,97.84782970000015,97.84782970000015,98.34797919999983,98.34797919999983,98.33146820000002,up,0.438213899999937,None,98.33152999999947,98.33155850000003,None,,,,,,,,,,009,001,2026-01-28_16h35.35.762,NESC3137_EEG_experiment,,2025.1.1,60.04934855465826,2026-01-28 16h36.01.195585 -0400,
65,0,65,down,0.3183337999998912,None,None,,,65,0,65,0,98.34797919999983,,,,,,,,,,,,,,,,,,,,98.33173089999946,98.34797919999983,99.24765579999985,99.23121959999935,2,99.23307260000001,99.24765579999985,99.24765579999985,,,99.73148909999964,down,0.3183337999998912,None,99.73155909999969,99.7316009999995,None,,,,,,,,,,009,001,2026-01-28_16h35.35.762,NESC3137_EEG_experiment,,2025.1.1,60.04934855465826,2026-01-28 16h36.01.195585 -0400,
66,0,66,down,0.3892393999994965,None,None,,,66,0,66,0,99.74751099999958,,,,,,,,,,,,,,,,,,,,99.73179939999955,99.74751099999958,100.68103280000014,100.66471519999959,1,100.66669329999968,100.68103280000014,100.68103280000014,101.18115709999984,101.18115709999984,101.16459349999968,down,0.3892393999994965,None,101.16465449999941,101.16468569999961,None,,,,,,,,,,009,001,2026-01-28_16h35.35.762,NESC3137_EEG_experiment,,2025.1.1,60.04934855465826,2026-01-28 16h36.01.195585 -0400,
67,0,67,None,,,None,,,67,0,67,0,101.18115709999984,,,,,,,,,,,,,,,,,,,,101.1648740999999,101.18115709999984,102.1146450999995,102.09815209999942,1,102.10007949999999,102.1146450999995,102.1146450999995,102.61414090000017,102.61414090000017,102.59726090000004,None,,,102.59729530000004,102.59731250000004,None,,,,,,,,,,009,001,2026-01-28_16h35.35.762,NESC3137_EEG_experiment,,2025.1.1,60.04934855465826,2026-01-28 16h36.01.195585 -0400,
68,0,68,up,0.4573987000003399,None,None,,,68,0,68,0,102.61414090000017,,,,,,,,,,,,,,,,,,,,102.59743239999989,102.61414090000017,103.58058160000019,103.56441099999938,1,103.5670040999994,103.58058160000019,103.58058160000019,,,104.06466449999971,up,0.4573987000003399,None,104.06473029999961,104.0647656000001,None,,,,,,,,,,009,001,2026-01-28_16h35.35.762,NESC3137_EEG_experiment,,2025.1.1,60.04934855465826,2026-01-28 16h36.01.195585 -0400,
69,0,69,down,0.39787710000018706,None,None,,,69,0,69,0,104.08091409999997,,,,,,,,,,,,,,,,,,,,104.06494899999961,104.08091409999997,104.66429729999982,104.64823439999964,2,104.65040940000017,104.66429729999982,104.66429729999982,105.16433059999963,105.16433059999963,105.14798499999961,down,0.39787710000018706,None,105.14804490000006,105.14807599999949,None,,,,,,,,,,009,001,2026-01-28_16h35.35.762,NESC3137_EEG_experiment,,2025.1.1,60.04934855465826,2026-01-28 16h36.01.195585 -0400,
70,0,70,None,,,None,,,70,0,70,0,105.16433059999963,,,,,,,,,,,,,,,,,,,,105.14825500000006,105.16433059999963,105.68106149999949,105.66465979999975,1,105.66692520000015,105.68106149999949,105.68106149999949,106.18102289999933,106.18102289999933,106.16444629999933,None,,,106.16449659999944,106.16452769999978,None,,,,,,,,,,009,001,2026-01-28_16h35.35.762,NESC3137_EEG_experiment,,2025.1.1,60.04934855465826,2026-01-28 16h36.01.195585 -0400,
71,0,71,None,,,None,,,71,0,71,0,106.18102289999933,,,,,,,,,,,,,,,,,,,,106.16470750000008,106.18102289999933,106.8806255999998,106.86442910000005,2,106.86642269999993,106.8806255999998,106.8806255999998,107.38080809999974,107.38080809999974,107.36408119999942,None,,,107.36413110000012,107.36416139999983,None,,,,,,,,,,009,001,2026-01-28_16h35.35.762,NESC3137_EEG_experiment,,2025.1.1,60.04934855465826,2026-01-28 16h36.01.195585 -0400,
72,0,72,None,,,None,,,72,0,72,0,107.38080809999974,,,,,,,,,,,,,,,,,,,,107.3643562999996,107.38080809999974,107.91457469999932,107.89750589999949,2,107.89982439999949,107.91457469999932,107.91457469999932,,,108.39792739999939,None,,,108.39798579999933,108.39802249999957,None,,,,,,,,,,009,001,2026-01-28_16h35.35.762,NESC3137_EEG_experiment,,2025.1.1,60.04934855465826,2026-01-28 16h36.01.195585 -0400,
73,0,73,up,0.4101413999997021,None,None,,,73,0,73,0,108.41387599999962,,,,,,,,,,,,,,,,,,,,108.39822319999985,108.41387599999962,109.34779040000012,109.33150229999956,2,109.33352709999963,109.34779040000012,109.34779040000012,109.8472641999997,109.8472641999997,109.83080749999954,up,0.4101413999997021,None,109.83086739999999,109.83089870000003,None,,,,,,,,,,009,001,2026-01-28_16h35.35.762,NESC3137_EEG_experiment,,2025.1.1,60.04934855465826,2026-01-28 16h36.01.195585 -0400,
74,0,74,None,,,None,,,74,0,74,0,109.8472641999997,,,,,,,,,,,,,,,,,,,,109.83111399999962,109.8472641999997,110.5310344999998,110.51462230000016,2,110.5168549,110.5310344999998,110.5310344999998,,,111.01482140000007,None,,,111.01491209999949,111.01494730000013,None,,,,,,,,,,009,001,2026-01-28_16h35.35.762,NESC3137_EEG_experiment,,2025.1.1,60.04934855465826,2026-01-28 16h36.01.195585 -0400,
75,0,75,up,0.4357067000000825,None,None,,,75,0,75,0,111.03127659999973,,,,,,,,,,,,,,,,,,,,111.01517160000003,111.03127659999973,111.69822769999973,111.68110969999998,1,111.68291700000009,111.69822769999973,111.69822769999973,,,112.19776959999945,up,0.4357067000000825,None,112.19781859999966,112.1978382999996,None,,,,,,,,,,009,001,2026-01-28_16h35.35.762,NESC3137_EEG_experiment,,2025.1.1,60.04934855465826,2026-01-28 16h36.01.195585 -0400,
76,0,76,down,0.3675162999998065,None,None,,,76,0,76,0,112.21450389999973,,,,,,,,,,,,,,,,,,,,112.19796899999983,112.21450389999973,113.0146722999998,112.99841199999992,2,113.0006644999994,113.0146722999998,113.0146722999998,113.51446739999938,113.51446739999938,113.49780980000014,down,0.3675162999998065,None,113.49785710000015,113.4978745999997,None,,,,,,,,,,009,001,2026-01-28_16h35.35.762,NESC3137_EEG_experiment,,2025.1.1,60.04934855465826,2026-01-28 16h36.01.195585 -0400,
77,0,77,None,,,None,,,77,0,77,0,113.51446739999938,,,,,,,,,,,,,,,,,,,,113.49801680000019,113.51446739999938,114.38081509999938,114.36445809999987,1,114.36676579999948,114.38081509999938,114.38081509999938,,,114.86481869999989,None,,,114.86486239999977,114.86488610000015,None,,,,,,,,,,009,001,2026-01-28_16h35.35.762,NESC3137_EEG_experiment,,2025.1.1,60.04934855465826,2026-01-28 16h36.01.195585 -0400,
78,0,78,up,0.4666463000003205,None,None,,,78,0,78,0,114.88102619999972,,,,,,,,,,,,,,,,,,,,114.8650232,114.88102619999972,115.54748999999993,115.53078169999935,1,115.53284329999951,115.54748999999993,115.54748999999993,116.04791159999968,116.04791159999968,116.03072119999979,up,0.4666463000003205,None,116.03077819999999,116.03080549999959,None,,,,,,,,,,009,001,2026-01-28_16h35.35.762,NESC3137_EEG_experiment,,2025.1.1,60.04934855465826,2026-01-28 16h36.01.195585 -0400,
79,0,79,down,0.4015035000002172,None,None,,,79,0,79,0,116.04791159999968,,,,,,,,,,,,,,,,,,,,116.03098489999957,116.04791159999968,116.98056420000012,116.96474299999954,1,116.96665919999941,116.98056420000012,116.98056420000012,117.48089199999959,117.48089199999959,117.46437269999933,down,0.4015035000002172,None,117.46443279999949,117.4644632999998,None,,,,,,,,,,009,001,2026-01-28_16h35.35.762,NESC3137_EEG_experiment,,2025.1.1,60.04934855465826,2026-01-28 16h36.01.195585 -0400,
80,0,80,None,,,None,,,80,0,80,0,117.48089199999959,,,,,,,,,,,,,,,,,,,,117.46466039999996,117.48089199999959,118.34751509999933,118.3311920999995,1,118.33335139999963,118.34751509999933,118.34751509999933,118.84768219999933,118.84768219999933,118.83075069999995,None,,,118.83078569999998,118.83080249999966,None,,,,,,,,,,009,001,2026-01-28_16h35.35.762,NESC3137_EEG_experiment,,2025.1.1,60.04934855465826,2026-01-28 16h36.01.195585 -0400,
81,0,81,None,,,None,,,81,0,81,0,118.84768219999933,,,,,,,,,,,,,,,,,,,,118.83091849999983,118.84768219999933,119.69784189999973,119.6812018999999,2,119.68325189999996,119.69784189999973,119.69784189999973,,,120.18147469999985,None,,,120.1815402000002,120.1815716000001,None,,,,,,,,,,009,001,2026-01-28_16h35.35.762,NESC3137_EEG_experiment,,2025.1.1,60.04934855465826,2026-01-28 16h36.01.195585 -0400,
82,0,82,None,,,None,,,82,0,82,0,120.19765240000015,,,,,,,,,,,,,,,,,,,,120.18177229999947,120.19765240000015,121.14780699999937,121.13124249999964,1,121.13354519999939,121.14780699999937,121.14780699999937,121.64719869999954,121.64719869999954,121.6312170000001,None,,,121.63126809999994,121.63128460000007,None,,,,,,,,,,009,001,2026-01-28_16h35.35.762,NESC3137_EEG_experiment,,2025.1.1,60.04934855465826,2026-01-28 16h36.01.195585 -0400,
83,0,83,None,,,None,,,83,0,83,0,121.64719869999954,,,,,,,,,,,,,,,,,,,,121.63139330000013,121.64719869999954,122.33097439999983,122.31475049999972,1,122.31669469999997,122.33097439999983,122.33097439999983,122.83099289999973,122.83099289999973,122.81419819999974,None,,,122.81424929999957,122.81427960000019,None,,,,,,,,,,009,001,2026-01-28_16h35.35.762,NESC3137_EEG_experiment,,2025.1.1,60.04934855465826,2026-01-28 16h36.01.195585 -0400,
84,0,84,None,,,None,,,84,0,84,0,122.83099289999973,,,,,,,,,,,,,,,,,,,,122.81442849999985,122.83099289999973,123.46388750000006,123.44738199999938,2,123.44964199999959,123.46388750000006,123.46388750000006,,,123.94785150000007,None,,,123.94790099999955,123.94792009999946,None,,,,,,,,,,009,001,2026-01-28_16h35.35.762,NESC3137_EEG_experiment,,2025.1.1,60.04934855465826,2026-01-28 16h36.01.195585 -0400,
85,0,85,down,0.4348898999996891,None,None,,,85,0,85,0,123.96438829999988,,,,,,,,,,,,,,,,,,,,123.94805089999954,123.96438829999988,124.94715079999969,124.93125009999949,2,124.93375899999955,124.94715079999969,124.94715079999969,125.44761010000002,125.44761010000002,125.43071299999974,down,0.4348898999996891,None,125.43076789999941,125.43079719999969,None,,,,,,,,,,009,001,2026-01-28_16h35.35.762,NESC3137_EEG_experiment,,2025.1.1,60.04934855465826,2026-01-28 16h36.01.195585 -0400,
86,0,86,up,0.40524510000068403,None,None,,,86,0,86,0,125.44761010000002,,,,,,,,,,,,,,,,,,,,125.43097769999986,125.44761010000002,126.26460969999971,126.24797169999965,1,126.25016830000004,126.26460969999971,126.26460969999971,126.76447339999959,126.76447339999959,126.74757399999999,up,0.40524510000068403,None,126.74763219999932,126.74766170000021,None,,,,,,,,,,009,001,2026-01-28_16h35.35.762,NESC3137_EEG_experiment,,2025.1.1,60.04934855465826,2026-01-28 16h36.01.195585 -0400,
87,0,87,None,,,None,,,87,0,87,0,126.76447339999959,,,,,,,,,,,,,,,,,,,,126.74785209999936,126.76447339999959,127.56414669999958,127.54748000000018,1,127.5500646999999,127.56414669999958,127.56414669999958,128.06387559999985,128.06387559999985,128.04745599999933,None,,,128.04750299999978,128.04753040000014,None,,,,,,,,,,009,001,2026-01-28_16h35.35.762,NESC3137_EEG_experiment,,2025.1.1,60.04934855465826,2026-01-28 16h36.01.195585 -0400,
88,0,88,None,,,None,,,88,0,88,0,128.06387559999985,,,,,,,,,,,,,,,,,,,,128.04771530000016,128.06387559999985,128.88104959999964,128.8646435999999,2,128.86674429999948,128.88104959999964,128.88104959999964,129.3812699,129.3812699,129.36404299999958,None,,,129.36410269999942,129.3641335000002,None,,,,,,,,,,009,001,2026-01-28_16h35.35.762,NESC3137_EEG_experiment,,2025.1.1,60.04934855465826,2026-01-28 16h36.01.195585 -0400,
89,0,89,down,0.42222060000040074,None,None,,,89,0,89,0,129.3812699,,,,,,,,,,,,,,,,,,,,129.3643204,129.3812699,130.2477283999997,130.2307897999999,2,130.2329734999994,130.2477283999997,130.2477283999997,,,130.7314177999997,down,0.42222060000040074,None,130.73146859999997,130.7314897999995,None,,,,,,,,,,009,001,2026-01-28_16h35.35.762,NESC3137_EEG_experiment,,2025.1.1,60.04934855465826,2026-01-28 16h36.01.195585 -0400,
90,0,90,up,0.4449973000000682,None,None,,,90,0,90,0,130.74790159999975,,,,,,,,,,,,,,,,,,,,130.73163149999982,130.74790159999975,131.68095129999983,131.66452039999967,1,131.6666594999997,131.68095129999983,131.68095129999983,,,132.16491869999936,up,0.4449973000000682,None,132.1650009999994,132.16503769999963,None,,,,,,,,,,009,001,2026-01-28_16h35.35.762,NESC3137_EEG_experiment,,2025.1.1,60.04934855465826,2026-01-28 16h36.01.195585 -0400,
91,0,91,None,,,None,,,91,0,91,0,132.18062839999948,,,,,,,,,,,,,,,,,,,,132.16523299999972,132.18062839999948,132.7143148999994,132.69750299999941,1,132.6994407000002,132.7143148999994,132.7143148999994,,,133.19803839999986,None,,,133.19811059999938,133.19814319999932,None,,,,,,,,,,009,001,2026-01-28_16h35.35.762,NESC3137_EEG_experiment,,2025.1.1,60.04934855465826,2026-01-28 16h36.01.195585 -0400,
92,0,92,down,0.4489709999998013,None,None,,,92,0,92,0,133.21453659999952,,,,,,,,,,,,,,,,,,,,133.19832789999964,133.21453659999952,133.7810153999999,133.7646525,2,133.7669949000001,133.7810153999999,133.7810153999999,134.28103190000002,134.28103190000002,134.26485890000004,down,0.4489709999998013,None,134.26492559999951,134.26495369999975,None,,,,,,,,,,009,001,2026-01-28_16h35.35.762,NESC3137_EEG_experiment,,2025.1.1,60.04934855465826,2026-01-28 16h36.01.195585 -0400,
93,0,93,down,0.3886097999993581,None,None,,,93,0,93,0,134.28103190000002,,,,,,,,,,,,,,,,,,,,134.26514020000013,134.28103190000002,135.28133350000007,135.26492869999947,2,135.26738849999947,135.28133350000007,135.28133350000007,135.78079459999935,135.78079459999935,135.76438229999985,down,0.3886097999993581,None,135.7644223999996,135.76444360000005,None,,,,,,,,,,009,001,2026-01-28_16h35.35.762,NESC3137_EEG_experiment,,2025.1.1,60.04934855465826,2026-01-28 16h36.01.195585 -0400,
94,0,94,down,0.4265064999999595,None,None,,,94,0,94,0,135.78079459999935,,,,,,,,,,,,,,,,,,,,135.7645818000001,135.78079459999935,136.34747119999975,136.3315179000001,1,136.33441009999933,136.34747119999975,136.34747119999975,136.84768209999947,136.84768209999947,136.83119350000015,down,0.4265064999999595,None,136.8312335999999,136.83124959999986,None,,,,,,,,,,009,001,2026-01-28_16h35.35.762,NESC3137_EEG_experiment,,2025.1.1,60.04934855465826,2026-01-28 16h36.01.195585 -0400,
95,0,95,down,0.4536519000002954,None,None,,,95,0,95,0,136.84768209999947,,,,,,,,,,,,,,,,,,,,136.8313675999998,136.84768209999947,137.46425929999987,137.4479941999998,2,137.4501909999999,137.46425929999987,137.46425929999987,137.9643804999996,137.9643804999996,137.9480311999996,down,0.4536519000002954,None,137.94808329999978,137.9481009000001,None,,,,,,,,,,009,001,2026-01-28_16h35.35.762,NESC3137_EEG_experiment,,2025.1.1,60.04934855465826,2026-01-28 16h36.01.195585 -0400,
96,0,96,None,,,None,,,96,0,96,0,137.9643804999996,,,,,,,,,,,,,,,,,,,,137.94823929999984,137.9643804999996,138.94783629999984,138.9310644999996,2,138.93310699999984,138.94783629999984,138.94783629999984,,,139.4312289999998,None,,,139.43128290000004,139.43131319999975,None,,,,,,,,,,009,001,2026-01-28_16h35.35.762,NESC3137_EEG_experiment,,2025.1.1,60.04934855465826,2026-01-28 16h36.01.195585 -0400,
97,0,97,down,0.3845844000006764,None,None,,,97,0,97,0,139.4477139999999,,,,,,,,,,,,,,,,,,,,139.43149389999962,139.4477139999999,140.39739089999966,140.38073739999982,2,140.38297129999955,140.39739089999966,140.39739089999966,,,140.8810211,down,0.3845844000006764,None,140.88107339999988,140.88109319999967,None,,,,,,,,,,009,001,2026-01-28_16h35.35.762,NESC3137_EEG_experiment,,2025.1.1,60.04934855465826,2026-01-28 16h36.01.195585 -0400,
98,0,98,None,,,None,,,98,0,98,0,140.8972646000002,,,,,,,,,,,,,,,,,,,,140.88122269999985,140.8972646000002,141.61423339999965,141.59789759999967,1,141.60019929999999,141.61423339999965,141.61423339999965,142.1143521999993,142.1143521999993,142.09805330000017,None,,,142.09810689999995,142.09813549999944,None,,,,,,,,,,009,001,2026-01-28_16h35.35.762,NESC3137_EEG_experiment,,2025.1.1,60.04934855465826,2026-01-28 16h36.01.195585 -0400,
99,0,99,None,,,None,,,99,0,99,0,142.1143521999993,,,,,,,,,,,,,,,,,,,,142.09830239999974,142.1143521999993,143.08078589999968,143.0644143999998,2,143.0665981000002,143.08078589999968,143.08078589999968,143.58093149999968,143.58093149999968,143.56446059999962,None,,,143.5644973999997,143.56451449999986,None,,,,,,,,,,009,001,2026-01-28_16h35.35.762,NESC3137_EEG_experiment,,2025.1.1,60.04934855465826,2026-01-28 16h36.01.195585 -0400,
100,0,100,down,0.3942014999993262,None,None,,,100,0,100,0,143.58093149999968,,,,,,,,,,,,,,,,,,,,143.56463319999966,143.58093149999968,144.34788190000017,144.33147419999932,2,144.33420039999965,144.34788190000017,144.34788190000017,144.84791419999965,144.84791419999965,144.83161109999946,down,0.3942014999993262,None,144.83166919999985,144.83170040000005,None,,,,,,,,,,009,001,2026-01-28_16h35.35.762,NESC3137_EEG_experiment,,2025.1.1,60.04934855465826,2026-01-28 16h36.01.195585 -0400,
101,0,101,None,,,None,,,101,0,101,0,144.84791419999965,,,,,,,,,,,,,,,,,,,,144.8318890999999,144.84791419999965,145.69775339999978,145.68129749999935,1,145.6840349999993,145.69775339999978,145.69775339999978,146.19767199999933,146.19767199999933,146.1811256000001,None,,,146.1811592999993,146.18117569999959,None,,,,,,,,,,009,001,2026-01-28_16h35.35.762,NESC3137_EEG_experiment,,2025.1.1,60.04934855465826,2026-01-28 16h36.01.195585 -0400,
102,0,102,down,0.4555646999997407,None,None,,,102,0,102,0,146.19767199999933,,,,,,,,,,,,,,,,,,,,146.18129820000013,146.19767199999933,147.01434840000002,146.99783779999962,2,146.99998979999964,147.01434840000002,147.01434840000002,147.51432709999972,147.51432709999972,147.49802,down,0.4555646999997407,None,147.49807369999962,147.4981014999994,None,,,,,,,,,,009,001,2026-01-28_16h35.35.762,NESC3137_EEG_experiment,,2025.1.1,60.04934855465826,2026-01-28 16h36.01.195585 -0400,
103,0,103,up,0.4391599000000497,None,None,,,103,0,103,0,147.51432709999972,,,,,,,,,,,,,,,,,,,,147.4982731,147.51432709999972,148.0307818000001,148.01406159999988,1,148.0163963999994,148.0307818000001,148.0307818000001,,,148.51443560000007,up,0.4391599000000497,None,148.51450489999934,148.51453719999972,None,,,,,,,,,,009,001,2026-01-28_16h35.35.762,NESC3137_EEG_experiment,,2025.1.1,60.04934855465826,2026-01-28 16h36.01.195585 -0400,
104,0,104,down,0.4124936999996862,None,None,,,104,0,104,0,148.5308903999994,,,,,,,,,,,,,,,,,,,,148.51471909999964,148.5308903999994,149.49745230000008,149.48121509999964,2,149.48320389999935,149.49745230000008,149.49745230000008,149.99786140000015,149.99786140000015,149.98132669999995,down,0.4124936999996862,None,149.98138930000005,149.9814236000002,None,,,,,,,,,,009,001,2026-01-28_16h35.35.762,NESC3137_EEG_experiment,,2025.1.1,60.04934855465826,2026-01-28 16h36.01.195585 -0400,
105,0,105,up,0.4318810000004305,None,None,,,105,0,105,0,149.99786140000015,,,,,,,,,,,,,,,,,,,,149.9816084999993,149.99786140000015,150.81398819999959,150.7977417000002,1,150.80004610000015,150.81398819999959,150.81398819999959,,,151.2980904999995,up,0.4318810000004305,None,151.29814149999947,151.2981609999997,None,,,,,,,,,,009,001,2026-01-28_16h35.35.762,NESC3137_EEG_experiment,,2025.1.1,60.04934855465826,2026-01-28 16h36.01.195585 -0400,
106,0,106,None,,,None,,,106,0,106,0,151.31445799999983,,,,,,,,,,,,,,,,,,,,151.29831079999985,151.31445799999983,152.21447979999994,152.1978798,2,152.19979479999984,152.21447979999994,152.21447979999994,152.7146216000001,152.7146216000001,152.69788189999963,None,,,152.69791769999938,152.69793459999983,None,,,,,,,,,,009,001,2026-01-28_16h35.35.762,NESC3137_EEG_experiment,,2025.1.1,60.04934855465826,2026-01-28 16h36.01.195585 -0400,
107,0,107,down,0.41791620000003604,None,None,,,107,0,107,0,152.7146216000001,,,,,,,,,,,,,,,,,,,,152.69805519999954,152.7146216000001,153.5644384999996,153.54806909999934,2,153.5502832000002,153.5644384999996,153.5644384999996,154.06468219999988,154.06468219999988,154.04782590000013,down,0.41791620000003604,None,154.04789879999953,154.04793109999991,None,,,,,,,,,,009,001,2026-01-28_16h35.35.762,NESC3137_EEG_experiment,,2025.1.1,60.04934855465826,2026-01-28 16h36.01.195585 -0400,
108,0,108,None,,,None,,,108,0,108,0,154.06468219999988,,,,,,,,,,,,,,,,,,,,154.04813459999968,154.06468219999988,154.93082090000007,154.91443939999954,2,154.91628820000005,154.93082090000007,154.93082090000007,,,155.4152809999996,None,,,155.4153428999998,155.41537939999944,None,,,,,,,,,,009,001,2026-01-28_16h35.35.762,NESC3137_EEG_experiment,,2025.1.1,60.04934855465826,2026-01-28 16h36.01.195585 -0400,
109,0,109,None,,,None,,,109,0,109,0,155.43129769999996,,,,,,,,,,,,,,,,,,,,155.41561959999945,155.43129769999996,156.26424029999998,156.24792230000003,2,156.2503259999994,156.26424029999998,156.26424029999998,156.76391289999992,156.76391289999992,156.74747209999987,None,,,156.74751829999968,156.74754699999994,None,,,,,,,,,,009,001,2026-01-28_16h35.35.762,NESC3137_EEG_experiment,,2025.1.1,60.04934855465826,2026-01-28 16h36.01.195585 -0400,
110,0,110,down,0.37738509999962844,None,None,,,110,0,110,0,156.76391289999992,,,,,,,,,,,,,,,,,,,,156.7477229999995,156.76391289999992,157.58052009999938,157.56502420000015,2,157.56825489999937,157.58052009999938,157.58052009999938,158.0809959999997,158.0809959999997,158.06475129999944,down,0.37738509999962844,None,158.06479239999953,158.0648089999995,None,,,,,,,,,,009,001,2026-01-28_16h35.35.762,NESC3137_EEG_experiment,,2025.1.1,60.04934855465826,2026-01-28 16h36.01.195585 -0400,
111,0,111,None,,,None,,,111,0,111,0,158.0809959999997,,,,,,,,,,,,,,,,,,,,158.06493429999955,158.0809959999997,158.6142893999995,158.5979201,2,158.60003700000016,158.6142893999995,158.6142893999995,159.11450759999934,159.11450759999934,159.09793749999972,None,,,159.09798390000014,159.09801069999958,None,,,,,,,,,,009,001,2026-01-28_16h35.35.762,NESC3137_EEG_experiment,,2025.1.1,60.04934855465826,2026-01-28 16h36.01.195585 -0400,
112,0,112,up,0.3887343000005785,None,None,,,112,0,112,0,159.11450759999934,,,,,,,,,,,,,,,,,,,,159.09818519999953,159.11450759999934,159.68109129999993,159.66466059999948,1,159.66685150000012,159.68109129999993,159.68109129999993,160.1812291999995,160.1812291999995,160.16452279999976,up,0.3887343000005785,None,160.16456310000012,160.16458039999998,None,,,,,,,,,,009,001,2026-01-28_16h35.35.762,NESC3137_EEG_experiment,,2025.1.1,60.04934855465826,2026-01-28 16h36.01.195585 -0400,
113,0,113,None,,,None,,,113,0,113,0,160.1812291999995,,,,,,,,,,,,,,,,,,,,160.1647008,160.1812291999995,161.09778730000016,161.08107589999963,2,161.08290679999936,161.09778730000016,161.09778730000016,,,161.5816589999995,None,,,161.58173759999954,161.58176659999936,None,,,,,,,,,,009,001,2026-01-28_16h35.35.762,NESC3137_EEG_experiment,,2025.1.1,60.04934855465826,2026-01-28 16h36.01.195585 -0400,
114,0,114,down,0.38417029999982333,None,None,,,114,0,114,0,161.5975354000002,,,,,,,,,,,,,,,,,,,,161.58195929999965,161.5975354000002,162.59797059999983,162.58151970000017,2,162.58374999999978,162.59797059999983,162.59797059999983,163.09772069999963,163.09772069999963,163.08127389999936,down,0.38417029999982333,None,163.0813145000002,163.08133050000015,None,,,,,,,,,,009,001,2026-01-28_16h35.35.762,NESC3137_EEG_experiment,,2025.1.1,60.04934855465826,2026-01-28 16h36.01.195585 -0400,
115,0,115,up,0.4583362000003035,None,None,,,115,0,115,0,163.09772069999963,,,,,,,,,,,,,,,,,,,,163.08146099999976,163.09772069999963,163.7475743999994,163.73133489999964,1,163.73354459999973,163.7475743999994,163.7475743999994,164.2478803999993,164.2478803999993,164.23129249999965,up,0.4583362000003035,None,164.23134449999998,164.23136220000015,None,,,,,,,,,,009,001,2026-01-28_16h35.35.762,NESC3137_EEG_experiment,,2025.1.1,60.04934855465826,2026-01-28 16h36.01.195585 -0400,
116,0,116,None,,,None,,,116,0,116,0,164.2478803999993,,,,,,,,,,,,,,,,,,,,164.2315036,164.2478803999993,164.89745099999982,164.88136510000004,2,164.88343889999942,164.89745099999982,164.89745099999982,165.39770390000012,165.39770390000012,165.3807702999993,None,,,165.38082049999957,165.3808513999993,None,,,,,,,,,,009,001,2026-01-28_16h35.35.762,NESC3137_EEG_experiment,,2025.1.1,60.04934855465826,2026-01-28 16h36.01.195585 -0400,
117,0,117,down,0.3872879999998986,None,None,,,117,0,117,0,165.39770390000012,,,,,,,,,,,,,,,,,,,,165.38103150000006,165.39770390000012,166.31453049999982,166.29795299999932,2,166.29987840000013,166.31453049999982,166.31453049999982,166.81440310000016,166.81440310000016,166.79784649999965,down,0.3872879999998986,None,166.79788719999942,166.7979035999997,None,,,,,,,,,,009,001,2026-01-28_16h35.35.762,NESC3137_EEG_experiment,,2025.1.1,60.04934855465826,2026-01-28 16h36.01.195585 -0400,
118,0,118,down,0.4508452000000034,None,None,,,118,0,118,0,166.81440310000016,,,,,,,,,,,,,,,,,,,,166.79802279999967,166.81440310000016,167.53107569999975,167.5150440999996,2,167.51732209999955,167.53107569999975,167.53107569999975,168.03048020000006,168.03048020000006,168.01442429999952,down,0.4508452000000034,None,168.01448429999982,168.01451649999944,None,,,,,,,,,,009,001,2026-01-28_16h35.35.762,NESC3137_EEG_experiment,,2025.1.1,60.04934855465826,2026-01-28 16h36.01.195585 -0400,
119,0,119,up,0.42126569999982166,None,None,,,119,0,119,0,168.03048020000006,,,,,,,,,,,,,,,,,,,,168.0147023999998,168.03048020000006,168.86457919999975,168.84789889999956,1,168.8505199000001,168.86457919999975,168.86457919999975,169.36425669999971,169.36425669999971,169.34773419999965,up,0.42126569999982166,None,169.34779399999934,169.34782329999962,None,,,,,,,,,,009,001,2026-01-28_16h35.35.762,NESC3137_EEG_experiment,,2025.1.1,60.04934855465826,2026-01-28 16h36.01.195585 -0400,
120,0,120,None,,,None,,,120,0,120,0,169.36425669999971,,,,,,,,,,,,,,,,,,,,169.3480056999997,169.36425669999971,170.29778559999977,170.2812127999996,1,170.28332020000016,170.29778559999977,170.29778559999977,170.79761379999945,170.79761379999945,170.7812156,None,,,170.78124930000013,170.78126679999968,None,,,,,,,,,,009,001,2026-01-28_16h35.35.762,NESC3137_EEG_experiment,,2025.1.1,60.04934855465826,2026-01-28 16h36.01.195585 -0400,
121,0,121,None,,,None,,,121,0,121,0,170.79761379999945,,,,,,,,,,,,,,,,,,,,170.78138539999964,170.79761379999945,171.74717239999973,171.7311882999993,2,171.73361119999936,171.74717239999973,171.74717239999973,172.24761409999974,172.24761409999974,172.2314249000001,None,,,172.23146189999989,172.23147869999957,None,,,,,,,,,,009,001,2026-01-28_16h35.35.762,NESC3137_EEG_experiment,,2025.1.1,60.04934855465826,2026-01-28 16h36.01.195585 -0400,
122,0,122,down,0.4029902000002039,None,None,,,122,0,122,0,172.24761409999974,,,,,,,,,,,,,,,,,,,,172.23163179999938,172.24761409999974,173.1309225999994,173.114595,1,173.11688499999946,173.1309225999994,173.1309225999994,,,173.61504699999932,down,0.4029902000002039,None,173.6151104999999,173.61513419999937,None,,,,,,,,,,009,001,2026-01-28_16h35.35.762,NESC3137_EEG_experiment,,2025.1.1,60.04934855465826,2026-01-28 16h36.01.195585 -0400,
123,0,123,None,,,None,,,123,0,123,0,173.6310708000001,,,,,,,,,,,,,,,,,,,,173.61530709999988,173.6310708000001,174.14718399999947,174.1306614999994,1,174.1328284000001,174.14718399999947,174.14718399999947,,,174.63123199999973,None,,,174.63128979999965,174.63132549999955,None,,,,,,,,,,009,001,2026-01-28_16h35.35.762,NESC3137_EEG_experiment,,2025.1.1,60.04934855465826,2026-01-28 16h36.01.195585 -0400,
124,0,124,down,0.3911996000006184,None,None,,,124,0,124,0,174.64776019999954,,,,,,,,,,,,,,,,,,,,174.6315595999995,174.64776019999954,175.2307891999999,175.21452409999984,2,175.2169211999999,175.2307891999999,175.2307891999999,,,175.71466789999977,down,0.3911996000006184,None,175.71472949999952,175.7147513,None,,,,,,,,,,009,001,2026-01-28_16h35.35.762,NESC3137_EEG_experiment,,2025.1.1,60.04934855465826,2026-01-28 16h36.01.195585 -0400,
125,0,125,up,0.30661419999978534,0.14398419999997714,None,,,125,0,125,0,175.7310953999995,,,,,,,,,,,,,,,,,,,,175.7149099999997,175.7310953999995,176.7312065999995,176.71462979999978,1,176.7168418000001,176.7312065999995,176.7312065999995,177.2312191000001,177.2312191000001,177.21450490000007,up,0.30661419999978534,0.14398419999997714,177.2145505999997,177.21456959999978,None,,,,,,,,,,009,001,2026-01-28_16h35.35.762,NESC3137_EEG_experiment,,2025.1.1,60.04934855465826,2026-01-28 16h36.01.195585 -0400,
126,0,126,None,,,None,,,126,0,126,0,177.2312191000001,,,,,,,,,,,,,,,,,,,,177.21472649999941,177.2312191000001,177.86450429999968,177.84804499999973,2,177.85041790000014,177.86450429999968,177.86450429999968,178.36431139999968,178.36431139999968,178.34778000000006,None,,,178.34782799999994,178.3478580000001,None,,,,,,,,,,009,001,2026-01-28_16h35.35.762,NESC3137_EEG_experiment,,2025.1.1,60.04934855465826,2026-01-28 16h36.01.195585 -0400,
127,0,127,up,0.4054841999995915,0.047995100000662205,None,,,127,0,127,0,178.36431139999968,,,,,,,,,,,,,,,,,,,,178.34805030000007,178.36431139999968,179.0803876,179.0644113999997,2,179.06657519999953,179.0803876,179.0803876,,,179.5648741999994,up,0.4054841999995915,0.047995100000662205,179.5649341999997,179.56495610000002,None,,,,,,,,,,009,001,2026-01-28_16h35.35.762,NESC3137_EEG_experiment,,2025.1.1,60.04934855465826,2026-01-28 16h36.01.195585 -0400,
128,0,128,None,,,None,,,128,0,128,0,179.58121779999965,,,,,,,,,,,,,,,,,,,,179.56512750000002,179.58121779999965,180.5808637,180.56457520000004,2,180.5677485999995,180.5808637,180.5808637,181.08112559999972,181.08112559999972,181.06433329999982,None,,,181.06439880000016,181.06443369999943,None,,,,,,,,,,009,001,2026-01-28_16h35.35.762,NESC3137_EEG_experiment,,2025.1.1,60.04934855465826,2026-01-28 16h36.01.195585 -0400,
129,0,129,None,,,None,,,129,0,129,0,181.08112559999972,,,,,,,,,,,,,,,,,,,,181.06462949999968,181.08112559999972,181.7980649000001,181.7807143,1,181.78356350000013,181.7980649000001,181.7980649000001,,,182.2972968999993,None,,,182.29735569999957,182.29739100000006,None,,,,,,,,,,009,001,2026-01-28_16h35.35.762,NESC3137_EEG_experiment,,2025.1.1,60.04934855465826,2026-01-28 16h36.01.195585 -0400,
130,0,130,None,,,None,,,130,0,130,0,182.3138815000002,,,,,,,,,,,,,,,,,,,,182.29759860000013,182.3138815000002,182.96431669999947,182.9476684000001,1,182.94975989999966,182.96431669999947,182.96431669999947,183.4643159999996,183.4643159999996,183.44747559999996,None,,,183.44751929999984,183.44754589999957,None,,,,,,,,,,009,001,2026-01-28_16h35.35.762,NESC3137_EEG_experiment,,2025.1.1,60.04934855465826,2026-01-28 16h36.01.195585 -0400,
131,0,131,None,,,None,,,131,0,131,0,183.4643159999996,,,,,,,,,,,,,,,,,,,,183.44771390000005,183.4643159999996,184.16424240000015,184.1473802999999,1,184.14959360000012,184.16424240000015,184.16424240000015,184.66461069999968,184.66461069999968,184.64755280000008,None,,,184.64760969999952,184.6476402999997,None,,,,,,,,,,009,001,2026-01-28_16h35.35.762,NESC3137_EEG_experiment,,2025.1.1,60.04934855465826,2026-01-28 16h36.01.195585 -0400,
132,0,132,down,0.42960279999988416,None,None,,,132,0,132,0,184.66461069999968,,,,,,,,,,,,,,,,,,,,184.6478347000002,184.66461069999968,185.26429449999978,185.24795209999957,1,185.25004669999998,185.26429449999978,185.26429449999978,,,185.74814909999986,down,0.42960279999988416,None,185.74820550000004,185.74822549999953,None,,,,,,,,,,009,001,2026-01-28_16h35.35.762,NESC3137_EEG_experiment,,2025.1.1,60.04934855465826,2026-01-28 16h36.01.195585 -0400,
133,0,133,None,,,None,,,133,0,133,0,185.76414769999974,,,,,,,,,,,,,,,,,,,,185.74836330000016,185.76414769999974,186.34721649999938,186.33083410000017,2,186.3330836999994,186.34721649999938,186.34721649999938,186.8470513000002,186.8470513000002,186.83073590000004,None,,,186.83078279999972,186.83081049999964,None,,,,,,,,,,009,001,2026-01-28_16h35.35.762,NESC3137_EEG_experiment,,2025.1.1,60.04934855465826,2026-01-28 16h36.01.195585 -0400,
134,0,134,up,0.4122545000000173,None,None,,,134,0,134,0,186.8470513000002,,,,,,,,,,,,,,,,,,,,186.83097779999935,186.8470513000002,187.69768919999933,187.68102079999971,1,187.68380100000013,187.69768919999933,187.69768919999933,,,188.18124309999985,up,0.4122545000000173,None,188.18132049999986,188.18135540000003,None,,,,,,,,,,009,001,2026-01-28_16h35.35.762,NESC3137_EEG_experiment,,2025.1.1,60.04934855465826,2026-01-28 16h36.01.195585 -0400,
135,0,135,None,,,None,,,135,0,135,0,188.1977281999998,,,,,,,,,,,,,,,,,,,,188.18155399999978,188.1977281999998,188.8808871000001,188.86433699999998,2,188.86622739999984,188.8808871000001,188.8808871000001,189.38038909999977,189.38038909999977,189.36394010000004,None,,,189.36399249999977,189.36401999999998,None,,,,,,,,,,009,001,2026-01-28_16h35.35.762,NESC3137_EEG_experiment,,2025.1.1,60.04934855465826,2026-01-28 16h36.01.195585 -0400,
136,0,136,down,0.3869846999996298,None,None,,,136,0,136,0,189.38038909999977,,,,,,,,,,,,,,,,,,,,189.36419289999958,189.38038909999977,190.33091030000014,190.31455769999957,2,190.31699369999933,190.33091030000014,190.33091030000014,,,190.81472609999946,down,0.3869846999996298,None,190.81479929999932,190.81483070000013,None,,,,,,,,,,009,001,2026-01-28_16h35.35.762,NESC3137_EEG_experiment,,2025.1.1,60.04934855465826,2026-01-28 16h36.01.195585 -0400,
137,0,137,down,0.4007665999997698,None,None,,,137,0,137,0,190.83107669999936,,,,,,,,,,,,,,,,,,,,190.81503470000007,190.83107669999936,191.78105340000002,191.76405429999977,2,191.76656430000003,191.78105340000002,191.78105340000002,,,192.26455579999947,down,0.4007665999997698,None,192.2646154999993,192.26463499999954,None,,,,,,,,,,009,001,2026-01-28_16h35.35.762,NESC3137_EEG_experiment,,2025.1.1,60.04934855465826,2026-01-28 16h36.01.195585 -0400,
138,0,138,down,0.44877139999971405,None,None,,,138,0,138,0,192.28103180000016,,,,,,,,,,,,,,,,,,,,192.2647868999993,192.28103180000016,192.98101789999964,192.96461829999953,2,192.9670615999994,192.98101789999964,192.98101789999964,,,193.46479939999972,down,0.44877139999971405,None,193.4648492999995,193.46487029999935,None,,,,,,,,,,009,001,2026-01-28_16h35.35.762,NESC3137_EEG_experiment,,2025.1.1,60.04934855465826,2026-01-28 16h36.01.195585 -0400,
139,0,139,down,0.46600110000053974,None,None,,,139,0,139,0,193.48118419999992,,,,,,,,,,,,,,,,,,,,193.46500219999962,193.48118419999992,194.36424649999935,194.34740969999984,2,194.34960189999947,194.36424649999935,194.36424649999935,,,194.84808519999933,down,0.46600110000053974,None,194.84813829999985,194.84815949999938,None,,,,,,,,,,009,001,2026-01-28_16h35.35.762,NESC3137_EEG_experiment,,2025.1.1,60.04934855465826,2026-01-28 16h36.01.195585 -0400,
140,0,140,down,0.4614639999999781,None,None,,,140,0,140,0,194.86462239999946,,,,,,,,,,,,,,,,,,,,194.84829459999946,194.86462239999946,195.6643549999999,195.64790399999947,1,195.6500285000002,195.6643549999999,195.6643549999999,196.16434329999993,196.16434329999993,196.14789529999962,down,0.4614639999999781,None,196.14796469999965,196.14798569999948,None,,,,,,,,,,009,001,2026-01-28_16h35.35.762,NESC3137_EEG_experiment,,2025.1.1,60.04934855465826,2026-01-28 16h36.01.195585 -0400,
141,0,141,down,0.41127460000006977,None,None,,,141,0,141,0,196.16434329999993,,,,,,,,,,,,,,,,,,,,196.14816059999976,196.16434329999993,196.91455039999983,196.89805909999995,2,196.8999973,196.91455039999983,196.91455039999983,197.41422890000013,197.41422890000013,197.39740399999937,down,0.41127460000006977,None,197.397473,197.39750360000016,None,,,,,,,,,,009,001,2026-01-28_16h35.35.762,NESC3137_EEG_experiment,,2025.1.1,60.04934855465826,2026-01-28 16h36.01.195585 -0400,
142,0,142,None,,,None,,,142,0,142,0,197.41422890000013,,,,,,,,,,,,,,,,,,,,197.39768529999947,197.41422890000013,198.04706819999956,198.0310357999997,1,198.03320199999962,198.04706819999956,198.04706819999956,,,198.53114959999948,None,,,198.53119489999972,198.53121490000012,None,,,,,,,,,,009,001,2026-01-28_16h35.35.762,NESC3137_EEG_experiment,,2025.1.1,60.04934855465826,2026-01-28 16h36.01.195585 -0400,
143,0,143,None,,,None,,,143,0,143,0,198.54744019999998,,,,,,,,,,,,,,,,,,,,198.5313484999997,198.54744019999998,199.36454390000017,199.34803550000015,2,199.35019159999956,199.36454390000017,199.36454390000017,199.86448380000002,199.86448380000002,199.84780880000017,None,,,199.84786480000002,199.8478839999998,None,,,,,,,,,,009,001,2026-01-28_16h35.35.762,NESC3137_EEG_experiment,,2025.1.1,60.04934855465826,2026-01-28 16h36.01.195585 -0400,
144,0,144,down,0.4522125000003143,None,None,,,144,0,144,0,199.86448380000002,,,,,,,,,,,,,,,,,,,,199.84804359999998,199.86448380000002,200.49769299999934,200.4812554,1,200.4834882999994,200.49769299999934,200.49769299999934,200.99732200000017,200.99732200000017,200.9809080999994,down,0.4522125000003143,None,200.9809636,200.98099079999974,None,,,,,,,,,,009,001,2026-01-28_16h35.35.762,NESC3137_EEG_experiment,,2025.1.1,60.04934855465826,2026-01-28 16h36.01.195585 -0400,
145,0,145,None,,,None,,,145,0,145,0,200.99732200000017,,,,,,,,,,,,,,,,,,,,200.98117039999943,200.99732200000017,201.86430000000018,201.84818579999956,1,201.85075739999957,201.86430000000018,201.86430000000018,202.36376399999972,202.36376399999972,202.3478043999994,None,,,202.3478525999999,202.34788130000015,None,,,,,,,,,,009,001,2026-01-28_16h35.35.762,NESC3137_EEG_experiment,,2025.1.1,60.04934855465826,2026-01-28 16h36.01.195585 -0400,
146,0,146,None,,,None,,,146,0,146,0,202.36376399999972,,,,,,,,,,,,,,,,,,,,202.3480488999994,202.36376399999972,203.26415429999997,203.24822379999932,1,203.2502340000001,203.26415429999997,203.26415429999997,203.76444509999965,203.76444509999965,203.74826759999996,None,,,203.74833390000003,203.74836159999995,None,,,,,,,,,,009,001,2026-01-28_16h35.35.762,NESC3137_EEG_experiment,,2025.1.1,60.04934855465826,2026-01-28 16h36.01.195585 -0400,
147,0,147,None,,,None,,,147,0,147,0,203.76444509999965,,,,,,,,,,,,,,,,,,,,203.74856180000006,203.76444509999965,204.76440529999945,204.74766980000004,2,204.75028969999948,204.76440529999945,204.76440529999945,205.2643419999995,205.2643419999995,205.24783399999978,None,,,205.2478997999997,205.24793749999935,None,,,,,,,,,,009,001,2026-01-28_16h35.35.762,NESC3137_EEG_experiment,,2025.1.1,60.04934855465826,2026-01-28 16h36.01.195585 -0400,
148,0,148,up,0.44622009999966394,None,None,,,148,0,148,0,205.2643419999995,,,,,,,,,,,,,,,,,,,,205.24816199999987,205.2643419999995,206.04762309999933,206.03115459999935,1,206.03338059999987,206.04762309999933,206.04762309999933,,,206.5313414000002,up,0.44622009999966394,None,206.5314099999996,206.53144489999977,None,,,,,,,,,,009,001,2026-01-28_16h35.35.762,NESC3137_EEG_experiment,,2025.1.1,60.04934855465826,2026-01-28 16h36.01.195585 -0400,
149,0,149,None,,,None,,,149,0,149,0,206.54744200000005,,,,,,,,,,,,,,,,,,,,206.53164190000007,206.54744200000005,207.3308780999996,207.31446640000013,2,207.31681949999984,207.3308780999996,207.3308780999996,,,207.81462659999943,None,,,207.81468719999975,207.81473240000014,None,,,,,,,,,,009,001,2026-01-28_16h35.35.762,NESC3137_EEG_experiment,,2025.1.1,60.04934855465826,2026-01-28 16h36.01.195585 -0400,
150,0,150,up,0.4290798000001814,None,None,,,150,0,150,0,207.8309551000002,,,,,,,,,,,,,,,,,,,,207.81494829999974,207.8309551000002,208.4808321999999,208.46470839999984,1,208.46767079999972,208.4808321999999,208.4808321999999,208.98095269999976,208.98095269999976,208.96404379999967,up,0.4290798000001814,None,208.96411549999993,208.9641630999995,None,,,,,,,,,,009,001,2026-01-28_16h35.35.762,NESC3137_EEG_experiment,,2025.1.1,60.04934855465826,2026-01-28 16h36.01.195585 -0400,
151,0,151,down,0.39275129999987257,None,None,,,151,0,151,0,208.98095269999976,,,,,,,,,,,,,,,,,,,,208.96435959999963,208.98095269999976,209.58108850000008,209.5644309999998,2,209.5664625999998,209.58108850000008,209.58108850000008,,,210.06459929999983,down,0.39275129999987257,None,210.06465599999956,210.0646773999997,None,,,,,,,,,,009,001,2026-01-28_16h35.35.762,NESC3137_EEG_experiment,,2025.1.1,60.04934855465826,2026-01-28 16h36.01.195585 -0400,
152,0,152,up,0.35469379999995,None,None,,,152,0,152,0,210.08051259999957,,,,,,,,,,,,,,,,,,,,210.0648774000001,210.08051259999957,210.9311001999995,210.9145036,1,210.91674739999962,210.9311001999995,210.9311001999995,211.43080869999994,211.43080869999994,211.41432290000012,up,0.35469379999995,None,211.41437169999972,211.4143911000001,None,,,,,,,,,,009,001,2026-01-28_16h35.35.762,NESC3137_EEG_experiment,,2025.1.1,60.04934855465826,2026-01-28 16h36.01.195585 -0400,
153,0,153,down,0.33668740000030084,None,None,,,153,0,153,0,211.43080869999994,,,,,,,,,,,,,,,,,,,,211.41451319999942,211.43080869999994,211.98109079999995,211.96483939999962,2,211.9670228999994,211.98109079999995,211.98109079999995,212.4810370999994,212.4810370999994,212.46468809999988,down,0.33668740000030084,None,212.46473830000014,212.46475439999995,None,,,,,,,,,,009,001,2026-01-28_16h35.35.762,NESC3137_EEG_experiment,,2025.1.1,60.04934855465826,2026-01-28 16h36.01.195585 -0400,
154,0,154,None,,,None,,,154,0,154,0,212.4810370999994,,,,,,,,,,,,,,,,,,,,212.4648747000001,212.4810370999994,213.09724749999987,213.08107250000012,2,213.0830772999998,213.09724749999987,213.09724749999987,213.59774299999935,213.59774299999935,213.58118409999952,None,,,213.58122490000005,213.58124140000018,None,,,,,,,,,,009,001,2026-01-28_16h35.35.762,NESC3137_EEG_experiment,,2025.1.1,60.04934855465826,2026-01-28 16h36.01.195585 -0400,
155,0,155,down,0.4278438000001188,None,None,,,155,0,155,0,213.59774299999935,,,,,,,,,,,,,,,,,,,,213.58141989999967,213.59774299999935,214.11409829999957,214.09735379999984,2,214.0996497999995,214.11409829999957,214.11409829999957,,,214.5981740999996,down,0.4278438000001188,None,214.59822509999958,214.59824429999935,None,,,,,,,,,,009,001,2026-01-28_16h35.35.762,NESC3137_EEG_experiment,,2025.1.1,60.04934855465826,2026-01-28 16h36.01.195585 -0400,
156,0,156,down,0.3453145000003133,None,None,,,156,0,156,0,214.61456379999981,,,,,,,,,,,,,,,,,,,,214.59839379999994,214.61456379999981,215.1805370000002,215.16413909999937,2,215.16605679999975,215.1805370000002,215.1805370000002,,,215.66425189999973,down,0.3453145000003133,None,215.66431920000014,215.66436199999953,None,,,,,,,,,,009,001,2026-01-28_16h35.35.762,NESC3137_EEG_experiment,,2025.1.1,60.04934855465826,2026-01-28 16h36.01.195585 -0400,
157,0,157,None,,,None,,,157,0,157,0,215.68151919999946,,,,,,,,,,,,,,,,,,,,215.66455929999938,215.68151919999946,216.44763309999962,216.4311291999993,2,216.43321839999953,216.44763309999962,216.44763309999962,,,216.9313156999997,None,,,216.93137269999988,216.93141060000016,None,,,,,,,,,,009,001,2026-01-28_16h35.35.762,NESC3137_EEG_experiment,,2025.1.1,60.04934855465826,2026-01-28 16h36.01.195585 -0400,
158,0,158,up,0.4496878999998444,None,None,,,158,0,158,0,216.94807129999936,,,,,,,,,,,,,,,,,,,,216.9316001999996,216.94807129999936,217.56453109999984,217.54801270000007,1,217.54988859999958,217.56453109999984,217.56453109999984,218.0644357000001,218.0644357000001,218.04775410000002,up,0.4496878999998444,None,218.0478094,218.04784159999963,None,,,,,,,,,,009,001,2026-01-28_16h35.35.762,NESC3137_EEG_experiment,,2025.1.1,60.04934855465826,2026-01-28 16h36.01.195585 -0400,
159,0,159,down,0.3935215999999855,None,None,,,159,0,159,0,218.0644357000001,,,,,,,,,,,,,,,,,,,,218.0480189,218.0644357000001,218.56438590000016,218.5473431999999,1,218.5492250999996,218.56438590000016,218.56438590000016,,,219.0481364999996,down,0.3935215999999855,None,219.04821899999934,219.0482480999999,None,,,,,,,,,,009,001,2026-01-28_16h35.35.762,NESC3137_EEG_experiment,,2025.1.1,60.04934855465826,2026-01-28 16h36.01.195585 -0400,
160,0,160,None,,,None,,,160,0,160,0,219.06451879999986,,,,,,,,,,,,,,,,,,,,219.04847999999947,219.06451879999986,219.83129259999987,219.81469490000018,2,219.8170613000002,219.83129259999987,219.83129259999987,220.33072889999949,220.33072889999949,220.31448719999935,None,,,220.3145330999996,220.31456139999955,None,,,,,,,,,,009,001,2026-01-28_16h35.35.762,NESC3137_EEG_experiment,,2025.1.1,60.04934855465826,2026-01-28 16h36.01.195585 -0400,
161,0,161,up,0.44127449999996315,None,None,,,161,0,161,0,220.33072889999949,,,,,,,,,,,,,,,,,,,,220.3147283999997,220.33072889999949,221.18122309999944,221.1649899999993,1,221.16719899999953,221.18122309999944,221.18122309999944,221.6811802000002,221.6811802000002,221.66458349999994,up,0.44127449999996315,None,221.66462749999937,221.66464540000015,None,,,,,,,,,,009,001,2026-01-28_16h35.35.762,NESC3137_EEG_experiment,,2025.1.1,60.04934855465826,2026-01-28 16h36.01.195585 -0400,
162,0,162,None,,,None,,,162,0,162,0,221.6811802000002,,,,,,,,,,,,,,,,,,,,221.6647653,221.6811802000002,222.5809288999999,222.56459629999972,1,222.5664612999999,222.5809288999999,222.5809288999999,,,223.0648373999993,None,,,223.0649057999999,223.06493890000002,None,,,,,,,,,,009,001,2026-01-28_16h35.35.762,NESC3137_EEG_experiment,,2025.1.1,60.04934855465826,2026-01-28 16h36.01.195585 -0400,
163,0,163,down,0.3753879000005327,None,None,,,163,0,163,0,223.0812550999999,,,,,,,,,,,,,,,,,,,,223.0651610999994,223.0812550999999,223.81442639999932,223.79807269999947,2,223.79993659999946,223.81442639999932,223.81442639999932,224.31404680000014,224.31404680000014,224.29767689999971,down,0.3753879000005327,None,224.29773119999936,224.29775939999945,None,,,,,,,,,,009,001,2026-01-28_16h35.35.762,NESC3137_EEG_experiment,,2025.1.1,60.04934855465826,2026-01-28 16h36.01.195585 -0400,
164,0,164,None,,,None,,,164,0,164,0,224.31404680000014,,,,,,,,,,,,,,,,,,,,224.29792980000002,224.31404680000014,225.24765919999936,225.23128569999972,1,225.2334191,225.24765919999936,225.24765919999936,,,225.7318065999998,None,,,225.73186459999943,225.73189920000004,None,,,,,,,,,,009,001,2026-01-28_16h35.35.762,NESC3137_EEG_experiment,,2025.1.1,60.04934855465826,2026-01-28 16h36.01.195585 -0400,
165,0,165,down,0.3022135999999591,None,None,,,165,0,165,0,225.74741089999952,,,,,,,,,,,,,,,,,,,,225.7321234000001,225.74741089999952,226.6475773000002,226.63071069999933,1,226.6327857999995,226.6475773000002,226.6475773000002,227.14795009999943,227.14795009999943,227.1309898999998,down,0.3022135999999591,None,227.1310496999995,227.13108019999981,None,,,,,,,,,,009,001,2026-01-28_16h35.35.762,NESC3137_EEG_experiment,,2025.1.1,60.04934855465826,2026-01-28 16h36.01.195585 -0400,
166,0,166,down,0.39890940000077535,None,None,,,166,0,166,0,227.14795009999943,,,,,,,,,,,,,,,,,,,,227.1312668999999,227.14795009999943,227.8309221999998,227.81397349999952,1,227.81626979999965,227.8309221999998,227.8309221999998,,,228.31460139999945,down,0.39890940000077535,None,228.3146710000001,228.31470230000014,None,,,,,,,,,,009,001,2026-01-28_16h35.35.762,NESC3137_EEG_experiment,,2025.1.1,60.04934855465826,2026-01-28 16h36.01.195585 -0400,
167,0,167,None,,,None,,,167,0,167,0,228.3310234999999,,,,,,,,,,,,,,,,,,,,228.31489030000012,228.3310234999999,228.96392079999987,228.94766739999977,2,228.94998279999982,228.96392079999987,228.96392079999987,229.46424019999995,229.46424019999995,229.44778789999964,None,,,229.4478369999997,229.44785450000018,None,,,,,,,,,,009,001,2026-01-28_16h35.35.762,NESC3137_EEG_experiment,,2025.1.1,60.04934855465826,2026-01-28 16h36.01.195585 -0400,
168,0,168,None,,,None,,,168,0,168,0,229.46424019999995,,,,,,,,,,,,,,,,,,,,229.44798939999964,229.46424019999995,230.06450909999967,230.04850439999973,2,230.05147489999945,230.06450909999967,230.06450909999967,230.56444639999972,230.56444639999972,230.54824670000016,None,,,230.54829289999998,230.54834609999943,None,,,,,,,,,,009,001,2026-01-28_16h35.35.762,NESC3137_EEG_experiment,,2025.1.1,60.04934855465826,2026-01-28 16h36.01.195585 -0400,
169,0,169,None,,,None,,,169,0,169,0,230.56444639999972,,,,,,,,,,,,,,,,,,,,230.54847849999987,230.56444639999972,231.53105179999966,231.5146777,2,231.5167365999996,231.53105179999966,231.53105179999966,232.03121659999942,232.03121659999942,232.0147734000002,None,,,232.01481839999997,232.01483709999957,None,,,,,,,,,,009,001,2026-01-28_16h35.35.762,NESC3137_EEG_experiment,,2025.1.1,60.04934855465826,2026-01-28 16h36.01.195585 -0400,
170,0,170,up,0.3698682000003828,None,None,,,170,0,170,0,232.03121659999942,,,,,,,,,,,,,,,,,,,,232.01499349999995,232.03121659999942,232.96394710000004,232.948257,1,232.95112719999997,232.96394710000004,232.96394710000004,233.46407739999995,233.46407739999995,233.44792379999944,up,0.3698682000003828,None,233.44796289999977,233.44797930000004,None,,,,,,,,,,009,001,2026-01-28_16h35.35.762,NESC3137_EEG_experiment,,2025.1.1,60.04934855465826,2026-01-28 16h36.01.195585 -0400,
171,0,171,down,0.4029579999996713,None,None,,,171,0,171,0,233.46407739999995,,,,,,,,,,,,,,,,,,,,233.44809910000004,233.46407739999995,234.11477509999986,234.0976000999999,2,234.10038319999967,234.11477509999986,234.11477509999986,,,234.6140607999996,down,0.4029579999996713,None,234.6141235999994,234.61415469999974,None,,,,,,,,,,009,001,2026-01-28_16h35.35.762,NESC3137_EEG_experiment,,2025.1.1,60.04934855465826,2026-01-28 16h36.01.195585 -0400,
172,0,172,None,,,None,,,172,0,172,0,234.63090980000015,,,,,,,,,,,,,,,,,,,,234.61439659999996,234.63090980000015,235.46425349999936,235.44784489999984,2,235.45034489999944,235.46425349999936,235.46425349999936,235.96417500000007,235.96417500000007,235.94784319999962,None,,,235.94787850000012,235.94789489999948,None,,,,,,,,,,009,001,2026-01-28_16h35.35.762,NESC3137_EEG_experiment,,2025.1.1,60.04934855465826,2026-01-28 16h36.01.195585 -0400,
173,0,173,up,0.37284809999982826,None,None,,,173,0,173,0,235.96417500000007,,,,,,,,,,,,,,,,,,,,235.94802729999992,235.96417500000007,236.68093820000013,236.66403589999936,1,236.66618070000004,236.68093820000013,236.68093820000013,,,237.1647481,up,0.37284809999982826,None,237.16481629999998,237.1648482999999,None,,,,,,,,,,009,001,2026-01-28_16h35.35.762,NESC3137_EEG_experiment,,2025.1.1,60.04934855465826,2026-01-28 16h36.01.195585 -0400,
174,0,174,None,,,None,,,174,0,174,0,237.18098180000015,,,,,,,,,,,,,,,,,,,,237.16509760000008,237.18098180000015,237.83110109999961,237.8146732999994,1,237.81668939999963,237.83110109999961,237.83110109999961,238.3306931999996,238.3306931999996,238.31431069999962,None,,,238.3143731,238.31440209999982,None,,,,,,,,,,009,001,2026-01-28_16h35.35.762,NESC3137_EEG_experiment,,2025.1.1,60.04934855465826,2026-01-28 16h36.01.195585 -0400,
175,0,175,None,,,None,,,175,0,175,0,238.3306931999996,,,,,,,,,,,,,,,,,,,,238.31456999999955,238.3306931999996,238.84766339999987,238.8310032999998,2,238.83343009999953,238.84766339999987,238.84766339999987,239.34698930000013,239.34698930000013,239.33097429999998,None,,,239.3310209000001,239.33104790000016,None,,,,,,,,,,009,001,2026-01-28_16h35.35.762,NESC3137_EEG_experiment,,2025.1.1,60.04934855465826,2026-01-28 16h36.01.195585 -0400,
176,0,176,up,0.3728828000002977,None,None,,,176,0,176,0,239.34698930000013,,,,,,,,,,,,,,,,,,,,239.33121649999975,239.34698930000013,239.8809854000001,239.86444519999986,1,239.8701143999997,239.8809854000001,239.8809854000001,240.38118200000008,240.38118200000008,240.3646549999994,up,0.3728828000002977,None,240.36472179999964,240.36475429999973,None,,,,,,,,,,009,001,2026-01-28_16h35.35.762,NESC3137_EEG_experiment,,2025.1.1,60.04934855465826,2026-01-28 16h36.01.195585 -0400,
177,0,177,None,,,None,,,177,0,177,0,240.38118200000008,,,,,,,,,,,,,,,,,,,,240.36494760000005,240.38118200000008,240.99771749999945,240.98149729999932,1,240.9837650999998,240.99771749999945,240.99771749999945,241.49714789999962,241.49714789999962,241.48104609999973,None,,,241.48109489999933,241.48112429999946,None,,,,,,,,,,009,001,2026-01-28_16h35.35.762,NESC3137_EEG_experiment,,2025.1.1,60.04934855465826,2026-01-28 16h36.01.195585 -0400,
178,0,178,up,0.37930429999960324,None,None,,,178,0,178,0,241.49714789999962,,,,,,,,,,,,,,,,,,,,241.48130309999942,241.49714789999962,242.1144919999997,242.0974494000002,1,242.09979649999968,242.1144919999997,242.1144919999997,,,242.59774819999984,up,0.37930429999960324,None,242.59781789999943,242.5978387999994,None,,,,,,,,,,009,001,2026-01-28_16h35.35.762,NESC3137_EEG_experiment,,2025.1.1,60.04934855465826,2026-01-28 16h36.01.195585 -0400,
179,0,179,None,,,None,,,179,0,179,0,242.61436929999945,,,,,,,,,,,,,,,,,,,,242.59800019999966,242.61436929999945,243.59765650000008,243.5812219999998,1,243.58331540000017,243.59765650000008,243.59765650000008,244.09717929999988,244.09717929999988,244.0805891,None,,,244.08063849999962,244.08067010000013,None,,,,,,,,,,009,001,2026-01-28_16h35.35.762,NESC3137_EEG_experiment,,2025.1.1,60.04934855465826,2026-01-28 16h36.01.195585 -0400,
180,0,180,None,,,None,,,180,0,180,0,244.09717929999988,,,,,,,,,,,,,,,,,,,,244.08084839999992,244.09717929999988,244.61434980000013,244.59791529999984,1,244.60028299999976,244.61434980000013,244.61434980000013,245.11438859999998,245.11438859999998,245.09798339999998,None,,,245.09803209999973,245.09806539999954,None,,,,,,,,,,009,001,2026-01-28_16h35.35.762,NESC3137_EEG_experiment,,2025.1.1,60.04934855465826,2026-01-28 16h36.01.195585 -0400,
181,0,181,up,0.29795930000000226,None,None,,,181,0,181,0,245.11438859999998,,,,,,,,,,,,,,,,,,,,245.09827200000018,245.11438859999998,245.94785439999941,245.93114379999952,1,245.9330549999995,245.94785439999941,245.94785439999941,246.44771539999965,246.44771539999965,246.43116199999986,up,0.29795930000000226,None,246.4312227999999,246.43124420000004,None,,,,,,,,,,009,001,2026-01-28_16h35.35.762,NESC3137_EEG_experiment,,2025.1.1,60.04934855465826,2026-01-28 16h36.01.195585 -0400,
182,0,182,up,0.4624121999995623,None,None,,,182,0,182,0,246.44771539999965,,,,,,,,,,,,,,,,,,,,246.43137079999997,246.44771539999965,247.04741409999951,247.03095219999977,1,247.0332402999993,247.04741409999951,247.04741409999951,247.54704159999983,247.54704159999983,247.5310056999997,up,0.4624121999995623,None,247.5310645999998,247.53109499999937,None,,,,,,,,,,009,001,2026-01-28_16h35.35.762,NESC3137_EEG_experiment,,2025.1.1,60.04934855465826,2026-01-28 16h36.01.195585 -0400,
183,0,183,up,0.31901029999971797,None,None,,,183,0,183,0,247.54704159999983,,,,,,,,,,,,,,,,,,,,247.53127919999952,247.54704159999983,248.4310046999999,248.4143807999999,2,248.41654669999934,248.4310046999999,248.4310046999999,,,248.91460089999964,up,0.31901029999971797,None,248.91465919999973,248.9146800999997,None,,,,,,,,,,009,001,2026-01-28_16h35.35.762,NESC3137_EEG_experiment,,2025.1.1,60.04934855465826,2026-01-28 16h36.01.195585 -0400,
184,0,184,down,0.3645545999997921,None,None,,,184,0,184,0,248.93119789999946,,,,,,,,,,,,,,,,,,,,248.91483609999977,248.93119789999946,249.8973159999996,249.88063469999997,2,249.88280059999943,249.8973159999996,249.8973159999996,,,250.38117239999974,down,0.3645545999997921,None,250.38122620000013,250.38124629999948,None,,,,,,,,,,009,001,2026-01-28_16h35.35.762,NESC3137_EEG_experiment,,2025.1.1,60.04934855465826,2026-01-28 16h36.01.195585 -0400,
185,0,185,None,,,None,,,185,0,185,0,250.39783399999942,,,,,,,,,,,,,,,,,,,,250.38138329999947,250.39783399999942,251.2977966999997,251.28125920000002,2,251.28363050000007,251.2977966999997,251.2977966999997,251.79748819999986,251.79748819999986,251.7814059000002,None,,,251.78144789999988,251.78146749999996,None,,,,,,,,,,009,001,2026-01-28_16h35.35.762,NESC3137_EEG_experiment,,2025.1.1,60.04934855465826,2026-01-28 16h36.01.195585 -0400,
186,0,186,None,,,None,,,186,0,186,0,251.79748819999986,,,,,,,,,,,,,,,,,,,,251.78159609999966,251.79748819999986,252.68070029999944,252.66449939999984,1,252.66650729999947,252.68070029999944,252.68070029999944,253.18100989999948,253.18100989999948,253.16474179999932,None,,,253.1648008000002,253.16483549999975,None,,,,,,,,,,009,001,2026-01-28_16h35.35.762,NESC3137_EEG_experiment,,2025.1.1,60.04934855465826,2026-01-28 16h36.01.195585 -0400,
187,0,187,down,0.4055443999995987,None,None,,,187,0,187,0,253.18100989999948,,,,,,,,,,,,,,,,,,,,253.16503490000014,253.18100989999948,253.86435019999954,253.84781289999955,2,253.84984509999958,253.86435019999954,253.86435019999954,254.36426930000016,254.36426930000016,254.3479894000002,down,0.4055443999995987,None,254.3480531999994,254.34808199999952,None,,,,,,,,,,009,001,2026-01-28_16h35.35.762,NESC3137_EEG_experiment,,2025.1.1,60.04934855465826,2026-01-28 16h36.01.195585 -0400,
188,0,188,down,0.349651300000005,None,None,,,188,0,188,0,254.36426930000016,,,,,,,,,,,,,,,,,,,,254.3482740999998,254.36426930000016,255.0641928999994,255.04795860000013,2,255.05012369999986,255.0641928999994,255.0641928999994,255.5642173999995,255.5642173999995,255.54783210000005,down,0.349651300000005,None,255.54789040000014,255.54792120000002,None,,,,,,,,,,009,001,2026-01-28_16h35.35.762,NESC3137_EEG_experiment,,2025.1.1,60.04934855465826,2026-01-28 16h36.01.195585 -0400,
189,0,189,down,0.410942000000432,None,None,,,189,0,189,0,255.5642173999995,,,,,,,,,,,,,,,,,,,,255.54811149999932,255.5642173999995,256.51479740000013,256.49751469999956,1,256.5005960999997,256.51479740000013,256.51479740000013,,,256.9976391,down,0.410942000000432,None,256.9976867999994,256.9977057999995,None,,,,,,,,,,009,001,2026-01-28_16h35.35.762,NESC3137_EEG_experiment,,2025.1.1,60.04934855465826,2026-01-28 16h36.01.195585 -0400,
190,0,190,down,0.4365872999997009,None,None,,,190,0,190,0,257.0143929999995,,,,,,,,,,,,,,,,,,,,256.9978407999997,257.0143929999995,257.8973704,257.88127879999956,2,257.8841072999994,257.8973704,257.8973704,258.3974404999999,258.3974404999999,258.3808662000001,down,0.4365872999997009,None,258.3809319000002,258.38095169999997,None,,,,,,,,,,009,001,2026-01-28_16h35.35.762,NESC3137_EEG_experiment,,2025.1.1,60.04934855465826,2026-01-28 16h36.01.195585 -0400,
191,0,191,None,,,None,,,191,0,191,0,258.3974404999999,,,,,,,,,,,,,,,,,,,,258.3810997999999,258.3974404999999,259.33118529999956,259.3141362999995,1,259.3168231999998,259.33118529999956,259.33118529999956,,,259.8145507999998,None,,,259.8145949999998,259.8146136999994,None,,,,,,,,,,009,001,2026-01-28_16h35.35.762,NESC3137_EEG_experiment,,2025.1.1,60.04934855465826,2026-01-28 16h36.01.195585 -0400,
192,0,192,None,,,None,,,192,0,192,0,259.8308909999996,,,,,,,,,,,,,,,,,,,,259.81474679999974,259.8308909999996,260.49760779999997,260.4810856999993,2,260.48378779999985,260.49760779999997,260.49760779999997,260.9970894999997,260.9970894999997,260.98058260000016,None,,,260.9806273999993,260.9806448999998,None,,,,,,,,,,009,001,2026-01-28_16h35.35.762,NESC3137_EEG_experiment,,2025.1.1,60.04934855465826,2026-01-28 16h36.01.195585 -0400,
193,0,193,up,0.3608606999996482,None,None,,,193,0,193,0,260.9970894999997,,,,,,,,,,,,,,,,,,,,260.9807800999997,260.9970894999997,261.7970360999998,261.7815114999994,1,261.7835391999997,261.7970360999998,261.7970360999998,262.2977614000001,262.2977614000001,262.2806587999994,up,0.3608606999996482,None,262.28072299999985,262.2807482999997,None,,,,,,,,,,009,001,2026-01-28_16h35.35.762,NESC3137_EEG_experiment,,2025.1.1,60.04934855465826,2026-01-28 16h36.01.195585 -0400,
194,0,194,up,0.42755029999989347,None,None,,,194,0,194,0,262.2977614000001,,,,,,,,,,,,,,,,,,,,262.2809264999996,262.2977614000001,263.2823512999994,263.26420249999956,1,263.26654619999954,263.2823512999994,263.2823512999994,,,263.7812626999994,up,0.42755029999989347,None,263.78131549999944,263.78133549999984,None,,,,,,,,,,009,001,2026-01-28_16h35.35.762,NESC3137_EEG_experiment,,2025.1.1,60.04934855465826,2026-01-28 16h36.01.195585 -0400,
195,0,195,down,0.3562067000002571,None,None,,,195,0,195,0,263.79756480000015,,,,,,,,,,,,,,,,,,,,263.7814708999995,263.79756480000015,264.49757880000016,264.48159829999986,2,264.4842314999996,264.49757880000016,264.49757880000016,264.9970721999998,264.9970721999998,264.9815257999999,down,0.3562067000002571,None,264.9815649000002,264.98158090000015,None,,,,,,,,,,009,001,2026-01-28_16h35.35.762,NESC3137_EEG_experiment,,2025.1.1,60.04934855465826,2026-01-28 16h36.01.195585 -0400,
196,0,196,None,,,None,,,196,0,196,0,264.9970721999998,,,,,,,,,,,,,,,,,,,,264.9817003999997,264.9970721999998,265.53036239999983,265.5143760000001,2,265.5165148999995,265.53036239999983,265.53036239999983,266.03026580000005,266.03026580000005,266.0142974999999,None,,,266.0143619999999,266.0143920999999,None,,,,,,,,,,009,001,2026-01-28_16h35.35.762,NESC3137_EEG_experiment,,2025.1.1,60.04934855465826,2026-01-28 16h36.01.195585 -0400,
197,0,197,down,0.40135770000051707,None,None,,,197,0,197,0,266.03026580000005,,,,,,,,,,,,,,,,,,,,266.0145788,266.03026580000005,266.5804791999999,266.5648626000002,2,266.5678790000002,266.5804791999999,266.5804791999999,267.08077069999945,267.08077069999945,267.06426529999953,down,0.40135770000051707,None,267.0643054000002,267.0643231999993,None,,,,,,,,,,009,001,2026-01-28_16h35.35.762,NESC3137_EEG_experiment,,2025.1.1,60.04934855465826,2026-01-28 16h36.01.195585 -0400,
198,0,198,None,,,None,,,198,0,198,0,267.08077069999945,,,,,,,,,,,,,,,,,,,,267.0644945999993,267.08077069999945,267.8973139999998,267.8806857999998,2,267.8827075999998,267.8973139999998,267.8973139999998,,,268.38102419999996,None,,,268.38109989999975,268.3811390999999,None,,,,,,,,,,009,001,2026-01-28_16h35.35.762,NESC3137_EEG_experiment,,2025.1.1,60.04934855465826,2026-01-28 16h36.01.195585 -0400,
199,0,199,up,0.4348704000003636,None,None,,,199,0,199,0,268.3977380999995,,,,,,,,,,,,,,,,,,,,268.38134679999985,268.3977380999995,269.1472868999999,269.1306743999994,1,269.1325998000002,269.1472868999999,269.1472868999999,,,269.63143619999937,up,0.4348704000003636,None,269.6315410999996,269.6315789,None,,,,,,,,,,009,001,2026-01-28_16h35.35.762,NESC3137_EEG_experiment,,2025.1.1,60.04934855465826,2026-01-28 16h36.01.195585 -0400,
200,0,200,down,0.38880779999999504,None,space,6.402173700000276,None,200,0,200,0,269.6476954,,,,,,,,,,,,,,,,,,,,269.63178979999975,269.6476954,270.28103909999936,270.26400229999945,2,270.2661189999999,270.28103909999936,270.28103909999936,,,270.7642409,down,0.38880779999999504,None,270.7643151000002,307.1808467999999,space,270.7808037999994,300.76358319999963,300.76358319999963,300.78085180000016,6.402173700000276,None,,,,009,001,2026-01-28_16h35.35.762,NESC3137_EEG_experiment,,2025.1.1,60.04934855465826,2026-01-28 16h36.01.195585 -0400,
201,0,201,up,0.3569292000001951,None,None,,,201,0,201,0,307.19746940000005,,,,,,,,,,,,,,,,,,,,307.1810614999995,307.19746940000005,307.88103580000006,307.86477469999954,1,307.86670669999967,307.88103580000006,307.88103580000006,308.3807877999998,308.3807877999998,308.3646727999994,up,0.3569292000001951,None,308.3647439999995,308.36477729999933,None,,,,,,,,,,009,001,2026-01-28_16h35.35.762,NESC3137_EEG_experiment,,2025.1.1,60.04934855465826,2026-01-28 16h36.01.195585 -0400,
202,0,202,up,0.383247300000221,None,None,,,202,0,202,0,308.3807877999998,,,,,,,,,,,,,,,,,,,,308.36496369999986,308.3807877999998,309.03064019999965,309.0143662999999,1,309.0166601000001,309.03064019999965,309.03064019999965,,,309.51448399999936,up,0.383247300000221,None,309.5145322999997,309.51455089999945,None,,,,,,,,,,009,001,2026-01-28_16h35.35.762,NESC3137_EEG_experiment,,2025.1.1,60.04934855465826,2026-01-28 16h36.01.195585 -0400,
203,0,203,up,0.38479540000025736,None,None,,,203,0,203,0,309.53104540000004,,,,,,,,,,,,,,,,,,,,309.51468099999965,309.53104540000004,310.3809129000001,310.3645078999998,1,310.3665508999993,310.3809129000001,310.3809129000001,310.8806402,310.8806402,310.8644132999998,up,0.38479540000025736,None,310.8644531,310.8644696000001,None,,,,,,,,,,009,001,2026-01-28_16h35.35.762,NESC3137_EEG_experiment,,2025.1.1,60.04934855465826,2026-01-28 16h36.01.195585 -0400,
204,0,204,None,,,None,,,204,0,204,0,310.8806402,,,,,,,,,,,,,,,,,,,,310.8645910999994,310.8806402,311.6811071000002,311.66532709999956,1,311.66766909999933,311.6811071000002,311.6811071000002,312.18031840000003,312.18031840000003,312.1641945000001,None,,,312.16424779999943,312.1642750000001,None,,,,,,,,,,009,001,2026-01-28_16h35.35.762,NESC3137_EEG_experiment,,2025.1.1,60.04934855465826,2026-01-28 16h36.01.195585 -0400,
205,0,205,down,0.37972590000026685,None,None,,,205,0,205,0,312.18031840000003,,,,,,,,,,,,,,,,,,,,312.16444989999945,312.18031840000003,312.69791819999955,312.6811769999995,2,312.6834429999999,312.69791819999955,312.69791819999955,313.19749969999975,313.19749969999975,313.1812020999996,down,0.37972590000026685,None,313.1812751999996,313.18130669999937,None,,,,,,,,,,009,001,2026-01-28_16h35.35.762,NESC3137_EEG_experiment,,2025.1.1,60.04934855465826,2026-01-28 16h36.01.195585 -0400,
206,0,206,None,,,None,,,206,0,206,0,313.19749969999975,,,,,,,,,,,,,,,,,,,,313.18149129999983,313.19749969999975,313.9139237999998,313.8975472000002,2,313.8997529999997,313.9139237999998,313.9139237999998,314.4140846,314.4140846,314.39723219999996,None,,,314.3972769000002,314.3973027000002,None,,,,,,,,,,009,001,2026-01-28_16h35.35.762,NESC3137_EEG_experiment,,2025.1.1,60.04934855465826,2026-01-28 16h36.01.195585 -0400,
207,0,207,down,0.39675480000005336,None,None,,,207,0,207,0,314.4140846,,,,,,,,,,,,,,,,,,,,314.39745479999965,314.4140846,315.28106489999936,315.2643576999999,2,315.2663655999995,315.28106489999936,315.28106489999936,,,315.76450659999955,down,0.39675480000005336,None,315.7645751,315.7645969999994,None,,,,,,,,,,009,001,2026-01-28_16h35.35.762,NESC3137_EEG_experiment,,2025.1.1,60.04934855465826,2026-01-28 16h36.01.195585 -0400,
208,0,208,down,0.3299316999991788,None,None,,,208,0,208,0,315.78048820000004,,,,,,,,,,,,,,,,,,,,315.76475649999975,315.78048820000004,316.7477644999999,316.73143619999973,2,316.73413139999957,316.7477644999999,316.7477644999999,317.24755819999973,317.24755819999973,317.23097789999974,down,0.3299316999991788,None,317.23102819999986,317.23105639999994,None,,,,,,,,,,009,001,2026-01-28_16h35.35.762,NESC3137_EEG_experiment,,2025.1.1,60.04934855465826,2026-01-28 16h36.01.195585 -0400,
209,0,209,down,0.3856292000000394,None,None,,,209,0,209,0,317.24755819999973,,,,,,,,,,,,,,,,,,,,317.23121230000015,317.24755819999973,318.1640441999998,318.1477987999997,2,318.15007369999967,318.1640441999998,318.1640441999998,,,318.6479910999997,down,0.3856292000000394,None,318.6480834999993,318.64811929999996,None,,,,,,,,,,009,001,2026-01-28_16h35.35.762,NESC3137_EEG_experiment,,2025.1.1,60.04934855465826,2026-01-28 16h36.01.195585 -0400,
210,0,210,None,,,None,,,210,0,210,0,318.66420930000004,,,,,,,,,,,,,,,,,,,,318.64836039999955,318.66420930000004,319.4142475999997,319.39787239999987,1,319.40013719999934,319.4142475999997,319.4142475999997,319.9137219999993,319.9137219999993,319.8980524999997,None,,,319.8981131999999,319.898201,None,,,,,,,,,,009,001,2026-01-28_16h35.35.762,NESC3137_EEG_experiment,,2025.1.1,60.04934855465826,2026-01-28 16h36.01.195585 -0400,
211,0,211,None,,,None,,,211,0,211,0,319.9137219999993,,,,,,,,,,,,,,,,,,,,319.8983942999994,319.9137219999993,320.7304194999997,320.71470859999954,2,320.7176757999996,320.7304194999997,320.7304194999997,321.23088800000005,321.23088800000005,321.21453779999956,None,,,321.21458410000014,321.21461269999963,None,,,,,,,,,,009,001,2026-01-28_16h35.35.762,NESC3137_EEG_experiment,,2025.1.1,60.04934855465826,2026-01-28 16h36.01.195585 -0400,
212,0,212,down,0.3732858000003034,None,None,,,212,0,212,0,321.23088800000005,,,,,,,,,,,,,,,,,,,,321.21476989999974,321.23088800000005,322.0644451999997,322.0478717999995,2,322.0500801999997,322.0644451999997,322.0644451999997,322.5642020999994,322.5642020999994,322.5473385999994,down,0.3732858000003034,None,322.5474030999994,322.5474328999999,None,,,,,,,,,,009,001,2026-01-28_16h35.35.762,NESC3137_EEG_experiment,,2025.1.1,60.04934855465826,2026-01-28 16h36.01.195585 -0400,
213,0,213,None,,,None,,,213,0,213,0,322.5642020999994,,,,,,,,,,,,,,,,,,,,322.54761999999937,322.5642020999994,323.3640482999999,323.3477288999993,1,323.3499148000001,323.3640482999999,323.3640482999999,323.86448289999953,323.86448289999953,323.8472241999998,None,,,323.84727479999947,323.84729289999996,None,,,,,,,,,,009,001,2026-01-28_16h35.35.762,NESC3137_EEG_experiment,,2025.1.1,60.04934855465826,2026-01-28 16h36.01.195585 -0400,
214,0,214,up,0.46567789999971865,None,None,,,214,0,214,0,323.86448289999953,,,,,,,,,,,,,,,,,,,,323.84743590000016,323.86448289999953,324.56414379999933,324.5476302999996,1,324.54978759999995,324.56414379999933,324.56414379999933,,,325.0478134999994,up,0.46567789999971865,None,325.04787450000003,325.04789489999985,None,,,,,,,,,,009,001,2026-01-28_16h35.35.762,NESC3137_EEG_experiment,,2025.1.1,60.04934855465826,2026-01-28 16h36.01.195585 -0400,
215,0,215,None,,,None,,,215,0,215,0,325.0643688,,,,,,,,,,,,,,,,,,,,325.04803730000003,325.0643688,325.6642293999994,325.6474913000002,2,325.6498247999998,325.6642293999994,325.6642293999994,,,326.1478158,None,,,326.1478777000002,326.14791309999964,None,,,,,,,,,,009,001,2026-01-28_16h35.35.762,NESC3137_EEG_experiment,,2025.1.1,60.04934855465826,2026-01-28 16h36.01.195585 -0400,
216,0,216,up,0.3557163000004948,None,None,,,216,0,216,0,326.16438930000004,,,,,,,,,,,,,,,,,,,,326.1480775,326.16438930000004,327.11402219999945,327.0972978,1,327.0992663999996,327.11402219999945,327.11402219999945,,,327.5977875999997,up,0.3557163000004948,None,327.5978525999999,327.5978739000002,None,,,,,,,,,,009,001,2026-01-28_16h35.35.762,NESC3137_EEG_experiment,,2025.1.1,60.04934855465826,2026-01-28 16h36.01.195585 -0400,
217,0,217,down,0.4396926999997959,None,None,,,217,0,217,0,327.6143981999994,,,,,,,,,,,,,,,,,,,,327.59801509999943,327.6143981999994,328.6141014999994,328.5972065999995,2,328.59950709999976,328.6141014999994,328.6141014999994,329.1137976,329.1137976,329.0973157999997,down,0.4396926999997959,None,329.09737869999935,329.0974097999997,None,,,,,,,,,,009,001,2026-01-28_16h35.35.762,NESC3137_EEG_experiment,,2025.1.1,60.04934855465826,2026-01-28 16h36.01.195585 -0400,
218,0,218,up,0.4399383999998463,None,None,,,218,0,218,0,329.1137976,,,,,,,,,,,,,,,,,,,,329.09759419999955,329.1137976,329.9977891999997,329.9815226999999,1,329.9837229999994,329.9977891999997,329.9977891999997,330.49772719999964,330.49772719999964,330.4810774999996,up,0.4399383999998463,None,330.48111960000006,330.4811364999996,None,,,,,,,,,,009,001,2026-01-28_16h35.35.762,NESC3137_EEG_experiment,,2025.1.1,60.04934855465826,2026-01-28 16h36.01.195585 -0400,
