thisN,thisTrialN,thisRepN,key_resp_3.keys,key_resp_4.keys,key_resp_3.rt,key_resp_3.duration,key_resp_4.rt,key_resp_4.duration,trials.thisRepN,trials.thisTrialN,trials.thisN,trials.thisIndex,thisRow.t,notes,lsl_stream.started,lsl_stream.stopped,setup.started,setup.stopped,welcome.started,welcomeimg.started,key_resp.started,welcome.stopped,key_resp.keys,key_resp.rt,key_resp.duration,instruction.started,instructionimg.started,key_resp_2.started,instruction.stopped,key_resp_2.keys,key_resp_2.rt,key_resp_2.duration,fixation.started,cross.started,cross.stopped,fixation.stopped,trigger,face.started,faceStim.started,key_resp_3.started,face.stopped,trials.key_resp_3.keys,break_2.started,break_2.stopped,trials.key_resp_4.keys,trials.key_resp_3.rt,trials.key_resp_3.duration,faceStim.stopped,key_resp_3.stopped,breakimg.started,break2img.started,key_resp_4.started,breakimg.stopped,trials.key_resp_4.rt,trials.key_resp_4.duration,end.started,finish.started,finish.stopped,end.stopped,participant,session,date,expName,expVersion,psychopyVersion,frameRate,expStart,
,,,,,,,,,,,,,,,0.009665799996582791,0.009753899998031557,,,,,,,,,,,,,,,,,,,,,,,,,,,,,,,,,,,,,,,,,,,,003,001,2026-01-21_16h26.10.246,NESC3137_EEG_experiment,,2025.1.1,141.96801744858067,2026-01-21 16h26.32.575469 -0400,
,,,,,,,,,,,,,,,,,0.009784900001250207,0.00982020000810735,,,,,,,,,,,,,,,,,,,,,,,,,,,,,,,,,,,,,,,,,,003,001,2026-01-21_16h26.10.246,NESC3137_EEG_experiment,,2025.1.1,141.96801744858067,2026-01-21 16h26.32.575469 -0400,
,,,,,,,,,,,,,,,,,,,0.009879000004730187,0.017559400002937764,0.017559400002937764,2.240804900007788,space,2.1326218000031076,None,,,,,,,,,,,,,,,,,,,,,,,,,,,,,,,,,,,003,001,2026-01-21_16h26.10.246,NESC3137_EEG_experiment,,2025.1.1,141.96801744858067,2026-01-21 16h26.32.575469 -0400,
,,,,,,,,,,,,,,,,,,,,,,,,,,2.2408387000032235,2.243520800009719,2.243520800009719,9.708738100001938,space,7.458661600001506,None,,,,,,,,,,,,,,,,,,,,,,,,,,,,003,001,2026-01-21_16h26.10.246,NESC3137_EEG_experiment,,2025.1.1,141.96801744858067,2026-01-21 16h26.32.575469 -0400,
0,0,0,None,None,,,,,0,0,0,0,9.713319500006037,,,,,,,,,,,,,,,,,,,,9.710357200005092,9.713319500006037,10.320068300003186,10.30503889999818,2,10.318171999999322,10.320068300003186,10.320068300003186,10.808767499998794,None,10.80880870000692,10.808829500005231,None,,,,,,,,,,,,,,,003,001,2026-01-21_16h26.10.246,NESC3137_EEG_experiment,,2025.1.1,141.96801744858067,2026-01-21 16h26.32.575469 -0400,
1,0,1,down,None,0.1916436000028625,0.11199219999252819,,,1,0,1,0,10.816002599996864,,,,,,,,,,,,,,,,,,,,10.808947900004569,10.816002599996864,11.438568600002327,11.420249999995576,1,11.436503899996751,11.438568600002327,11.438568600002327,11.925849100007326,down,11.925893200008431,11.925914599996759,None,0.1916436000028625,0.11199219999252819,,,,,,,,,,,,,003,001,2026-01-21_16h26.10.246,NESC3137_EEG_experiment,,2025.1.1,141.96801744858067,2026-01-21 16h26.32.575469 -0400,
2,0,2,down,None,0.4269746999925701,None,,,2,0,2,0,11.93426370000816,,,,,,,,,,,,,,,,,,,,11.92603109999618,11.93426370000816,12.787247700005537,12.773681999999098,2,12.785023400007049,12.787247700005537,12.787247700005537,13.275513500004308,down,13.275594599996111,13.27561520000745,None,0.4269746999925701,None,,,,,,,,,,,,,003,001,2026-01-21_16h26.10.246,NESC3137_EEG_experiment,,2025.1.1,141.96801744858067,2026-01-21 16h26.32.575469 -0400,
3,0,3,down,None,0.3996061999932863,None,,,3,0,3,0,13.281785300001502,,,,,,,,,,,,,,,,,,,,13.275737200005096,13.281785300001502,14.254623800006812,14.239841999995406,2,14.252570700002252,14.254623800006812,14.254623800006812,14.741597200001706,down,14.741638899999089,14.741656199999852,None,0.3996061999932863,None,,,,,,,,,,,,,003,001,2026-01-21_16h26.10.246,NESC3137_EEG_experiment,,2025.1.1,141.96801744858067,2026-01-21 16h26.32.575469 -0400,
4,0,4,down,None,0.3616970000002766,None,,,4,0,4,0,14.748321400009445,,,,,,,,,,,,,,,,,,,,14.741772000008496,14.748321400009445,15.428563900000881,15.415094500000123,2,15.42648380000901,15.428563900000881,15.428563900000881,15.915338699996937,down,15.915382000006502,15.915398700002697,None,0.3616970000002766,None,,,,,,,,,,,,,003,001,2026-01-21_16h26.10.246,NESC3137_EEG_experiment,,2025.1.1,141.96801744858067,2026-01-21 16h26.32.575469 -0400,
5,0,5,None,None,,,,,5,0,5,0,15.923124799999641,,,,,,,,,,,,,,,,,,,,15.915510999999242,15.923124799999641,16.652136000004248,16.63949080000748,1,16.650285700001405,16.652136000004248,16.652136000004248,17.140589900009218,None,17.1406827000028,17.14071990000957,None,,,,,,,,,,,,,,,003,001,2026-01-21_16h26.10.246,NESC3137_EEG_experiment,,2025.1.1,141.96801744858067,2026-01-21 16h26.32.575469 -0400,
6,0,6,None,None,,,,,6,0,6,0,17.146025100009865,,,,,,,,,,,,,,,,,,,,17.14094450000266,17.146025100009865,17.741172100009862,17.723298500000965,1,17.737850999998045,17.741172100009862,17.741172100009862,18.22849860000133,None,18.22854979999829,18.228580599999987,None,,,,,,,,,,,,,,,003,001,2026-01-21_16h26.10.246,NESC3137_EEG_experiment,,2025.1.1,141.96801744858067,2026-01-21 16h26.32.575469 -0400,
7,0,7,None,None,,,,,7,0,7,0,18.23521769999934,,,,,,,,,,,,,,,,,,,,18.22875730000669,18.23521769999934,19.112634300006903,19.09772060000978,1,19.110063100000843,19.112634300006903,19.112634300006903,19.60052480000013,None,19.60056550000445,19.60058320000826,None,,,,,,,,,,,,,,,003,001,2026-01-21_16h26.10.246,NESC3137_EEG_experiment,,2025.1.1,141.96801744858067,2026-01-21 16h26.32.575469 -0400,
8,0,8,up,None,0.4456552999909036,None,,,8,0,8,0,19.607310200008214,,,,,,,,,,,,,,,,,,,,19.60070049999922,19.607310200008214,20.28899570000067,20.274288900007377,1,20.28646309999749,20.28899570000067,20.28899570000067,20.775974999996834,up,20.776020400007837,20.776038299998618,None,0.4456552999909036,None,,,,,,,,,,,,,003,001,2026-01-21_16h26.10.246,NESC3137_EEG_experiment,,2025.1.1,141.96801744858067,2026-01-21 16h26.32.575469 -0400,
9,0,9,None,None,,,,,9,0,9,0,20.782827100003487,,,,,,,,,,,,,,,,,,,,20.77615639999567,20.782827100003487,21.34415920000174,21.324185500008753,2,21.34129589999793,21.34415920000174,21.34415920000174,21.825434099999256,None,21.82549800000561,21.825517799996305,None,,,,,,,,,,,,,,,003,001,2026-01-21_16h26.10.246,NESC3137_EEG_experiment,,2025.1.1,141.96801744858067,2026-01-21 16h26.32.575469 -0400,
10,0,10,down,None,0.41080610000062734,None,,,10,0,10,0,21.831415000007837,,,,,,,,,,,,,,,,,,,,21.8256812000036,21.831415000007837,22.77141610000399,22.756521500006784,2,22.76930650000577,22.77141610000399,22.77141610000399,23.259118200003286,down,23.25916070000676,23.25917790000676,None,0.41080610000062734,None,,,,,,,,,,,,,003,001,2026-01-21_16h26.10.246,NESC3137_EEG_experiment,,2025.1.1,141.96801744858067,2026-01-21 16h26.32.575469 -0400,
11,0,11,None,None,,,,,11,0,11,0,23.26731199999631,,,,,,,,,,,,,,,,,,,,23.2592919000017,23.26731199999631,23.899589100008598,23.88548029999947,1,23.897542699996848,23.899589100008598,23.899589100008598,24.387155500007793,None,24.387209299995448,24.387241700009326,None,,,,,,,,,,,,,,,003,001,2026-01-21_16h26.10.246,NESC3137_EEG_experiment,,2025.1.1,141.96801744858067,2026-01-21 16h26.32.575469 -0400,
12,0,12,down,None,0.391225300001679,None,,,12,0,12,0,24.3936010000034,,,,,,,,,,,,,,,,,,,,24.387418600003002,24.3936010000034,25.21553159999894,25.200533199997153,2,25.21361249999609,25.21553159999894,25.21553159999894,25.703612500001327,down,25.70368170000438,25.70372259999567,None,0.391225300001679,None,,,,,,,,,,,,,003,001,2026-01-21_16h26.10.246,NESC3137_EEG_experiment,,2025.1.1,141.96801744858067,2026-01-21 16h26.32.575469 -0400,
13,0,13,down,None,0.38394489999336656,None,,,13,0,13,0,25.710457599998335,,,,,,,,,,,,,,,,,,,,25.70392680000805,25.710457599998335,26.254211799998302,26.23937370000931,2,26.252157900002203,26.254211799998302,26.254211799998302,26.742420499998843,down,26.742484900009003,26.74251820000063,None,0.38394489999336656,None,,,,,,,,,,,,,003,001,2026-01-21_16h26.10.246,NESC3137_EEG_experiment,,2025.1.1,141.96801744858067,2026-01-21 16h26.32.575469 -0400,
14,0,14,down,None,0.35812810000788886,None,,,14,0,14,0,26.748043500003405,,,,,,,,,,,,,,,,,,,,26.742697000008775,26.748043500003405,27.736126800009515,27.720319700005348,2,27.733715000009397,27.736126800009515,27.736126800009515,28.224446899999748,down,28.22449730000517,28.224515000008978,None,0.35812810000788886,None,,,,,,,,,,,,,003,001,2026-01-21_16h26.10.246,NESC3137_EEG_experiment,,2025.1.1,141.96801744858067,2026-01-21 16h26.32.575469 -0400,
15,0,15,down,None,0.3805705999984639,None,,,15,0,15,0,28.231303799999296,,,,,,,,,,,,,,,,,,,,28.224646800008486,28.231303799999296,28.73787510000693,28.72440930000448,2,28.735706000006758,28.73787510000693,28.73787510000693,29.224868200006313,down,29.22496740000497,29.22500299999956,None,0.3805705999984639,None,,,,,,,,,,,,,003,001,2026-01-21_16h26.10.246,NESC3137_EEG_experiment,,2025.1.1,141.96801744858067,2026-01-21 16h26.32.575469 -0400,
16,0,16,up,None,0.3207589000085136,None,,,16,0,16,0,29.231939100005548,,,,,,,,,,,,,,,,,,,,29.225164800009225,29.231939100005548,30.045395100009046,30.03122859999712,1,30.043583400009084,30.045395100009046,30.045395100009046,30.532927699998254,up,30.53297100000782,30.532987900005537,None,0.3207589000085136,None,,,,,,,,,,,,,003,001,2026-01-21_16h26.10.246,NESC3137_EEG_experiment,,2025.1.1,141.96801744858067,2026-01-21 16h26.32.575469 -0400,
17,0,17,up,None,0.33091970000532456,None,,,17,0,17,0,30.539493799995398,,,,,,,,,,,,,,,,,,,,30.53310610000335,30.539493799995398,31.07523499999661,31.06117760000052,1,31.073053800006164,31.07523499999661,31.07523499999661,31.562627000006614,up,31.56266979999782,31.56268750000163,None,0.33091970000532456,None,,,,,,,,,,,,,003,001,2026-01-21_16h26.10.246,NESC3137_EEG_experiment,,2025.1.1,141.96801744858067,2026-01-21 16h26.32.575469 -0400,
18,0,18,up,None,0.32772499999555293,None,,,18,0,18,0,31.56884269999864,,,,,,,,,,,,,,,,,,,,31.562804900007905,31.56884269999864,32.17439020000165,32.15959530000691,1,32.17225509999844,32.17439020000165,32.17439020000165,32.66130950000661,up,32.66135389999545,32.6613720000023,None,0.32772499999555293,None,,,,,,,,,,,,,003,001,2026-01-21_16h26.10.246,NESC3137_EEG_experiment,,2025.1.1,141.96801744858067,2026-01-21 16h26.32.575469 -0400,
19,0,19,up,None,0.35216009999567177,None,,,19,0,19,0,32.6695047999965,,,,,,,,,,,,,,,,,,,,32.66148900000553,32.6695047999965,33.349969900009455,33.33560990000842,1,33.347978300007526,33.349969900009455,33.349969900009455,33.83699100000376,up,33.83703350000724,33.837051299997256,None,0.35216009999567177,None,,,,,,,,,,,,,003,001,2026-01-21_16h26.10.246,NESC3137_EEG_experiment,,2025.1.1,141.96801744858067,2026-01-21 16h26.32.575469 -0400,
20,0,20,up,None,0.2600345999962883,0.19203489999927115,,,20,0,20,0,33.84523960000661,,,,,,,,,,,,,,,,,,,,33.83717100000649,33.84523960000661,34.47411379999539,34.45511049999914,1,34.4706237000064,34.47411379999539,34.47411379999539,34.96164979999594,up,34.96169430000009,34.9617120000039,None,0.2600345999962883,0.19203489999927115,,,,,,,,,,,,,003,001,2026-01-21_16h26.10.246,NESC3137_EEG_experiment,,2025.1.1,141.96801744858067,2026-01-21 16h26.32.575469 -0400,
21,0,21,down,None,0.35786569998890627,None,,,21,0,21,0,34.968310800002655,,,,,,,,,,,,,,,,,,,,34.96183749999909,34.968310800002655,35.7690952999983,35.75492230000964,2,35.76657160000468,35.7690952999983,35.7690952999983,36.25611299999582,down,36.25615660000767,36.256173900008434,None,0.35786569998890627,None,,,,,,,,,,,,,003,001,2026-01-21_16h26.10.246,NESC3137_EEG_experiment,,2025.1.1,141.96801744858067,2026-01-21 16h26.32.575469 -0400,
22,0,22,up,None,0.3887900000117952,None,,,22,0,22,0,36.26318989999709,,,,,,,,,,,,,,,,,,,,36.25628800000413,36.26318989999709,36.83347939999658,36.81959440000355,1,36.83162579999771,36.83347939999658,36.83347939999658,37.320465500000864,up,37.32052680000197,37.32055800000671,None,0.3887900000117952,None,,,,,,,,,,,,,003,001,2026-01-21_16h26.10.246,NESC3137_EEG_experiment,,2025.1.1,141.96801744858067,2026-01-21 16h26.32.575469 -0400,
23,0,23,down,None,0.37448280000535306,None,,,23,0,23,0,37.32759000000078,,,,,,,,,,,,,,,,,,,,37.32072770000377,37.32759000000078,38.01579649999621,38.00183390000893,2,38.01289640000323,38.01579649999621,38.01579649999621,38.503040099996724,down,38.50308320000477,38.50310220000392,None,0.37448280000535306,None,,,,,,,,,,,,,003,001,2026-01-21_16h26.10.246,NESC3137_EEG_experiment,,2025.1.1,141.96801744858067,2026-01-21 16h26.32.575469 -0400,
24,0,24,up,None,0.28891120001208037,0.16801109998777974,,,24,0,24,0,38.51017720000527,,,,,,,,,,,,,,,,,,,,38.50321979999717,38.51017720000527,39.30123640000238,39.28733120000106,1,39.29940040000656,39.30123640000238,39.30123640000238,39.78835820000677,up,39.78840410000703,39.78842300000542,None,0.28891120001208037,0.16801109998777974,,,,,,,,,,,,,003,001,2026-01-21_16h26.10.246,NESC3137_EEG_experiment,,2025.1.1,141.96801744858067,2026-01-21 16h26.32.575469 -0400,
25,0,25,up,None,0.34732079999230336,None,,,25,0,25,0,39.795842899999116,,,,,,,,,,,,,,,,,,,,39.78853980000713,39.795842899999116,40.44302560000506,40.42864019999979,1,40.44121790000645,40.44302560000506,40.44302560000506,40.9313145000051,up,40.931375600004685,40.93140729999868,None,0.34732079999230336,None,,,,,,,,,,,,,003,001,2026-01-21_16h26.10.246,NESC3137_EEG_experiment,,2025.1.1,141.96801744858067,2026-01-21 16h26.32.575469 -0400,
26,0,26,down,None,0.41127229999983683,None,,,26,0,26,0,40.93800989999727,,,,,,,,,,,,,,,,,,,,40.93156409999938,40.93800989999727,41.499258399999235,41.48598250000214,1,41.49742810000316,41.499258399999235,41.499258399999235,41.98641260000295,down,41.986457300008624,41.986474400007864,None,0.41127229999983683,None,,,,,,,,,,,,,003,001,2026-01-21_16h26.10.246,NESC3137_EEG_experiment,,2025.1.1,141.96801744858067,2026-01-21 16h26.32.575469 -0400,
27,0,27,up,None,0.41387679999752436,None,,,27,0,27,0,41.993072199999006,,,,,,,,,,,,,,,,,,,,41.986596700007794,41.993072199999006,42.84824160000426,42.833602300001075,1,42.84594460000517,42.84824160000426,42.84824160000426,43.33530810000957,up,43.335369399996125,43.335401899996214,None,0.41387679999752436,None,,,,,,,,,,,,,003,001,2026-01-21_16h26.10.246,NESC3137_EEG_experiment,,2025.1.1,141.96801744858067,2026-01-21 16h26.32.575469 -0400,
28,0,28,down,None,0.36271649999252986,None,,,28,0,28,0,43.34180580000975,,,,,,,,,,,,,,,,,,,,43.33557550000842,43.34180580000975,44.33145159999549,44.31520389999787,2,44.32967340000323,44.33145159999549,44.33145159999549,44.81494769999699,down,44.81499860000622,44.815017500004615,None,0.36271649999252986,None,44.820515900006285,44.820515900006285,,,,,,,,,,,003,001,2026-01-21_16h26.10.246,NESC3137_EEG_experiment,,2025.1.1,141.96801744858067,2026-01-21 16h26.32.575469 -0400,
29,0,29,up,None,0.43958720000227913,None,,,29,0,29,0,44.820515900006285,,,,,,,,,,,,,,,,,,,,44.81517370000074,44.820515900006285,45.606548299998394,45.590800200006925,1,45.604394299996784,45.606548299998394,45.606548299998394,46.09441180000431,up,46.09445390000474,46.09447110000474,None,0.43958720000227913,None,,,,,,,,,,,,,003,001,2026-01-21_16h26.10.246,NESC3137_EEG_experiment,,2025.1.1,141.96801744858067,2026-01-21 16h26.32.575469 -0400,
30,0,30,down,None,0.3765527999930782,None,,,30,0,30,0,46.10149650000676,,,,,,,,,,,,,,,,,,,,46.09458459999587,46.10149650000676,46.94182960000762,46.92791510000825,2,46.9399362999975,46.94182960000762,46.94182960000762,47.42973270000948,down,47.42982600000687,47.42986230000679,None,0.3765527999930782,None,,,,,,,,,,,,,003,001,2026-01-21_16h26.10.246,NESC3137_EEG_experiment,,2025.1.1,141.96801744858067,2026-01-21 16h26.32.575469 -0400,
31,0,31,down,None,0.3634821000014199,None,,,31,0,31,0,47.436295799998334,,,,,,,,,,,,,,,,,,,,47.43003889999818,47.436295799998334,48.427401200009626,48.409112900000764,2,48.42439600000216,48.427401200009626,48.427401200009626,48.91483870000229,down,48.9149150000012,48.91493640000408,None,0.3634821000014199,None,,,,,,,,,,,,,003,001,2026-01-21_16h26.10.246,NESC3137_EEG_experiment,,2025.1.1,141.96801744858067,2026-01-21 16h26.32.575469 -0400,
32,0,32,up,None,0.37548999999125954,None,,,32,0,32,0,48.92233470000792,,,,,,,,,,,,,,,,,,,,48.91505630000029,48.92233470000792,49.726682100008475,49.7135552999971,1,49.72459729999537,49.726682100008475,49.726682100008475,50.213530699998955,up,50.21357180000632,50.213587799997185,None,0.37548999999125954,None,50.22059179999633,50.22059179999633,,,,,,,,,,,003,001,2026-01-21_16h26.10.246,NESC3137_EEG_experiment,,2025.1.1,141.96801744858067,2026-01-21 16h26.32.575469 -0400,
33,0,33,down,None,0.3545295000076294,None,,,33,0,33,0,50.22059179999633,,,,,,,,,,,,,,,,,,,,50.21370210000896,50.22059179999633,51.139625499999966,51.12428040000668,2,51.13757410000835,51.139625499999966,51.139625499999966,51.6278619000077,down,51.62790720000339,51.6279235999973,None,0.3545295000076294,None,,,,,,,,,,,,,003,001,2026-01-21_16h26.10.246,NESC3137_EEG_experiment,,2025.1.1,141.96801744858067,2026-01-21 16h26.32.575469 -0400,
34,0,34,up,None,0.4115072999993572,None,,,34,0,34,0,51.635516800000914,,,,,,,,,,,,,,,,,,,,51.62803849999909,51.635516800000914,52.2665960000013,52.252546400006395,1,52.26463610000792,52.2665960000013,52.2665960000013,52.75425399999949,up,52.754297999999835,52.75431560000288,None,0.4115072999993572,None,,,,,,,,,,,,,003,001,2026-01-21_16h26.10.246,NESC3137_EEG_experiment,,2025.1.1,141.96801744858067,2026-01-21 16h26.32.575469 -0400,
35,0,35,down,None,0.35310420001042075,None,,,35,0,35,0,52.761641200006125,,,,,,,,,,,,,,,,,,,,52.75442969999858,52.761641200006125,53.58903499999724,53.57326459999604,2,53.58687140000984,53.58903499999724,53.58903499999724,54.077100299997255,down,54.0771456000075,54.077162500005215,None,0.35310420001042075,None,,,,,,,,,,,,,003,001,2026-01-21_16h26.10.246,NESC3137_EEG_experiment,,2025.1.1,141.96801744858067,2026-01-21 16h26.32.575469 -0400,
36,0,36,None,None,,,,,36,0,36,0,54.08392730000196,,,,,,,,,,,,,,,,,,,,54.07727629999863,54.08392730000196,54.634883799997624,54.61977530000149,2,54.63310010000714,54.634883799997624,54.634883799997624,55.124396200000774,None,55.124448900009156,55.124469500005944,None,,,,,,,,,,,,,,,003,001,2026-01-21_16h26.10.246,NESC3137_EEG_experiment,,2025.1.1,141.96801744858067,2026-01-21 16h26.32.575469 -0400,
37,0,37,up,None,0.3864410999958636,None,,,37,0,37,0,55.129962000006344,,,,,,,,,,,,,,,,,,,,55.12461870000698,55.129962000006344,55.8516854000045,55.83918330000597,1,55.84981310000876,55.8516854000045,55.8516854000045,56.338686900009634,up,56.33872139999585,56.33873610000592,None,0.3864410999958636,None,56.34565509999811,56.34565509999811,,,,,,,,,,,003,001,2026-01-21_16h26.10.246,NESC3137_EEG_experiment,,2025.1.1,141.96801744858067,2026-01-21 16h26.32.575469 -0400,
38,0,38,down,None,0.38384619999851566,None,,,38,0,38,0,56.34565509999811,,,,,,,,,,,,,,,,,,,,56.33884480000415,56.34565509999811,56.94235800000024,56.92912280000746,2,56.94042539999646,56.94235800000024,56.94235800000024,57.43085260000953,down,57.43090680000023,57.43092700000852,None,0.38384619999851566,None,,,,,,,,,,,,,003,001,2026-01-21_16h26.10.246,NESC3137_EEG_experiment,,2025.1.1,141.96801744858067,2026-01-21 16h26.32.575469 -0400,
39,0,39,up,None,0.4540612999990117,None,,,39,0,39,0,57.4366277000081,,,,,,,,,,,,,,,,,,,,57.43105159999686,57.4366277000081,57.99202160000277,57.97832150000613,1,57.98986580000201,57.99202160000277,57.99202160000277,58.478924399998505,up,58.47898539999733,58.47901750000892,None,0.4540612999990117,None,,,,,,,,,,,,,003,001,2026-01-21_16h26.10.246,NESC3137_EEG_experiment,,2025.1.1,141.96801744858067,2026-01-21 16h26.32.575469 -0400,
40,0,40,down,None,0.3877363000065088,None,,,40,0,40,0,58.48589660000289,,,,,,,,,,,,,,,,,,,,58.47918920000666,58.48589660000289,59.09843880000699,59.083373900008155,2,59.095744999998715,59.09843880000699,59.09843880000699,59.58570029999828,down,59.58577810000861,59.58580110000912,None,0.3877363000065088,None,,,,,,,,,,,,,003,001,2026-01-21_16h26.10.246,NESC3137_EEG_experiment,,2025.1.1,141.96801744858067,2026-01-21 16h26.32.575469 -0400,
41,0,41,down,None,0.33380839999881573,None,,,41,0,41,0,59.59305270000186,,,,,,,,,,,,,,,,,,,,59.58592929999577,59.59305270000186,60.53631389999646,60.5227542000066,2,60.53403650000109,60.53631389999646,60.53631389999646,61.02458219999971,down,61.02463510000962,61.024654299995746,None,0.33380839999881573,None,,,,,,,,,,,,,003,001,2026-01-21_16h26.10.246,NESC3137_EEG_experiment,,2025.1.1,141.96801744858067,2026-01-21 16h26.32.575469 -0400,
42,0,42,down,None,0.3666432000027271,None,,,42,0,42,0,61.03031970000302,,,,,,,,,,,,,,,,,,,,61.02479910000693,61.03031970000302,61.607441400003154,61.593023100009304,2,61.60534540000663,61.607441400003154,61.607441400003154,62.094373600004474,down,62.09441720000177,62.09444060000533,None,0.3666432000027271,None,,,,,,,,,,,,,003,001,2026-01-21_16h26.10.246,NESC3137_EEG_experiment,,2025.1.1,141.96801744858067,2026-01-21 16h26.32.575469 -0400,
43,0,43,up,None,0.32730800000717863,None,,,43,0,43,0,62.10226980000152,,,,,,,,,,,,,,,,,,,,62.09461349999765,62.10226980000152,63.094989699995494,63.08126990000892,1,63.09303920000093,63.094989699995494,63.094989699995494,63.58302059999551,up,63.58306390000507,63.58308240000042,None,0.32730800000717863,None,,,,,,,,,,,,,003,001,2026-01-21_16h26.10.246,NESC3137_EEG_experiment,,2025.1.1,141.96801744858067,2026-01-21 16h26.32.575469 -0400,
44,0,44,down,None,0.347284799994668,None,,,44,0,44,0,63.58902379999927,,,,,,,,,,,,,,,,,,,,63.583199000000604,63.58902379999927,64.23526509999647,64.22161540000525,2,64.23320040000544,64.23526509999647,64.23526509999647,64.72225930000423,down,64.72230280000076,64.72232549999899,None,0.347284799994668,None,,,,,,,,,,,,,003,001,2026-01-21_16h26.10.246,NESC3137_EEG_experiment,,2025.1.1,141.96801744858067,2026-01-21 16h26.32.575469 -0400,
45,0,45,up,None,0.36500160000286996,None,,,45,0,45,0,64.72890650000772,,,,,,,,,,,,,,,,,,,,64.72243829999934,64.72890650000772,65.68105710000964,65.66678939999838,1,65.67912319999596,65.68105710000964,65.68105710000964,66.16922870000417,up,66.16930570000841,66.16933089999657,None,0.36500160000286996,None,,,,,,,,,,,,,003,001,2026-01-21_16h26.10.246,NESC3137_EEG_experiment,,2025.1.1,141.96801744858067,2026-01-21 16h26.32.575469 -0400,
46,0,46,down,None,0.3887200000026496,None,,,46,0,46,0,66.1749470000068,,,,,,,,,,,,,,,,,,,,66.16951520000293,66.1749470000068,66.99410870000429,66.98079100000905,2,66.99171780000324,66.99410870000429,66.99410870000429,67.48175160000392,down,67.48180390000925,67.481826800009,None,0.3887200000026496,None,,,,,,,,,,,,,003,001,2026-01-21_16h26.10.246,NESC3137_EEG_experiment,,2025.1.1,141.96801744858067,2026-01-21 16h26.32.575469 -0400,
47,0,47,down,None,0.4259297999960836,None,,,47,0,47,0,67.4888546000002,,,,,,,,,,,,,,,,,,,,67.48196669999743,67.4888546000002,68.39620970000396,68.38404160000209,2,68.39437880000332,68.39620970000396,68.39620970000396,68.8849290000071,down,68.8849773999973,68.88500070000009,None,0.4259297999960836,None,,,,,,,,,,,,,003,001,2026-01-21_16h26.10.246,NESC3137_EEG_experiment,,2025.1.1,141.96801744858067,2026-01-21 16h26.32.575469 -0400,
48,0,48,up,None,0.398190899999463,None,,,48,0,48,0,68.89144190000661,,,,,,,,,,,,,,,,,,,,68.88517750000756,68.89144190000661,69.76784719999705,69.75219369999832,1,69.76560870000685,69.76784719999705,69.76784719999705,70.2554616999987,up,70.25550579999981,70.25552350000362,None,0.398190899999463,None,,,,,,,,,,,,,003,001,2026-01-21_16h26.10.246,NESC3137_EEG_experiment,,2025.1.1,141.96801744858067,2026-01-21 16h26.32.575469 -0400,
49,0,49,up,None,0.3602080999989994,None,,,49,0,49,0,70.26223619999655,,,,,,,,,,,,,,,,,,,,70.2556396,70.26223619999655,71.26211920000787,71.24928040000668,1,71.26028830000723,71.26211920000787,71.26211920000787,71.74938429999747,up,71.74944549999782,71.7494766000018,None,0.3602080999989994,None,,,,,,,,,,,,,003,001,2026-01-21_16h26.10.246,NESC3137_EEG_experiment,,2025.1.1,141.96801744858067,2026-01-21 16h26.32.575469 -0400,
50,0,50,down,None,0.4109438000014052,None,,,50,0,50,0,71.75694230000954,,,,,,,,,,,,,,,,,,,,71.74965030000021,71.75694230000954,72.3472674000077,72.33250889999908,2,72.34538909999537,72.3472674000077,72.3472674000077,72.83447950000118,down,72.8345493000088,72.83458199999586,None,0.4109438000014052,None,,,,,,,,,,,,,003,001,2026-01-21_16h26.10.246,NESC3137_EEG_experiment,,2025.1.1,141.96801744858067,2026-01-21 16h26.32.575469 -0400,
51,0,51,down,None,0.3279753999959212,0.15173430000140797,,,51,0,51,0,72.84165909999865,,,,,,,,,,,,,,,,,,,,72.83475609999732,72.84165909999865,73.81473929999629,73.79967150000448,2,73.81254140000965,73.81473929999629,73.81473929999629,74.30198669999663,down,74.30203049999545,74.30204760000925,None,0.3279753999959212,0.15173430000140797,,,,,,,,,,,,,003,001,2026-01-21_16h26.10.246,NESC3137_EEG_experiment,,2025.1.1,141.96801744858067,2026-01-21 16h26.32.575469 -0400,
52,0,52,down,None,0.2712379000004148,0.1519201999908546,,,52,0,52,0,74.30833690000873,,,,,,,,,,,,,,,,,,,,74.30216469999868,74.30833690000873,75.29490360000636,75.28106170000683,2,75.29305330000352,75.29490360000636,75.29490360000636,75.78200330000254,down,75.78205700000399,75.78207480000856,None,0.2712379000004148,0.1519201999908546,,,,,,,,,,,,,003,001,2026-01-21_16h26.10.246,NESC3137_EEG_experiment,,2025.1.1,141.96801744858067,2026-01-21 16h26.32.575469 -0400,
53,0,53,down,None,0.3592348999954993,None,,,53,0,53,0,75.78921519999858,,,,,,,,,,,,,,,,,,,,75.78219860000536,75.78921519999858,76.78283060000103,76.76908720000938,2,76.7810257000092,76.78283060000103,76.78283060000103,77.27096870000241,down,77.27105579999625,77.27108500000031,None,0.3592348999954993,None,,,,,,,,,,,,,003,001,2026-01-21_16h26.10.246,NESC3137_EEG_experiment,,2025.1.1,141.96801744858067,2026-01-21 16h26.32.575469 -0400,
54,0,54,down,None,0.27084820000163745,0.16027499998745043,,,54,0,54,0,77.27667490000022,,,,,,,,,,,,,,,,,,,,77.27124590000312,77.27667490000022,78.2712126999977,78.2558405000018,2,78.26929920000839,78.2712126999977,78.2712126999977,78.75823530000343,down,78.7582967000053,78.75832829999854,None,0.27084820000163745,0.16027499998745043,,,,,,,,,,,,,003,001,2026-01-21_16h26.10.246,NESC3137_EEG_experiment,,2025.1.1,141.96801744858067,2026-01-21 16h26.32.575469 -0400,
55,0,55,up,None,0.3734469000046374,None,,,55,0,55,0,78.76477500000328,,,,,,,,,,,,,,,,,,,,78.75849740000558,78.76477500000328,79.43260280000686,79.41928660000849,1,79.43059440000798,79.43260280000686,79.43260280000686,79.92076150000503,up,79.92080940000596,79.92082939999818,None,0.3734469000046374,None,,,,,,,,,,,,,003,001,2026-01-21_16h26.10.246,NESC3137_EEG_experiment,,2025.1.1,141.96801744858067,2026-01-21 16h26.32.575469 -0400,
56,0,56,down,None,0.2916222000058042,None,,,56,0,56,0,79.92732370000158,,,,,,,,,,,,,,,,,,,,79.92096139999921,79.92732370000158,80.64260940000531,80.62860280000314,2,80.6406513999973,80.64260940000531,80.64260940000531,81.12982309999643,down,81.12986490000912,81.1298819000076,None,0.2916222000058042,None,,,,,,,,,,,,,003,001,2026-01-21_16h26.10.246,NESC3137_EEG_experiment,,2025.1.1,141.96801744858067,2026-01-21 16h26.32.575469 -0400,
57,0,57,up,None,0.3122894999978598,None,,,57,0,57,0,81.13661570000113,,,,,,,,,,,,,,,,,,,,81.12999490000948,81.13661570000113,82.06174800000736,82.04686840000795,1,82.059917400009,82.06174800000736,82.06174800000736,82.5504396000033,up,82.55048309999984,82.55050110000593,None,0.3122894999978598,None,,,,,,,,,,,,,003,001,2026-01-21_16h26.10.246,NESC3137_EEG_experiment,,2025.1.1,141.96801744858067,2026-01-21 16h26.32.575469 -0400,
58,0,58,up,None,0.3294342000008328,None,,,58,0,58,0,82.55712169999606,,,,,,,,,,,,,,,,,,,,82.5506216000067,82.55712169999606,83.51659700000891,83.50129000000015,1,83.51475470000878,83.51659700000891,83.51659700000891,84.00481549999677,up,84.00487940000312,84.00490050000371,None,0.3294342000008328,None,,,,,,,,,,,,,003,001,2026-01-21_16h26.10.246,NESC3137_EEG_experiment,,2025.1.1,141.96801744858067,2026-01-21 16h26.32.575469 -0400,
59,0,59,up,None,0.3094481000007363,None,,,59,0,59,0,84.01217080000788,,,,,,,,,,,,,,,,,,,,84.00503690000915,84.01217080000788,84.66460329999973,84.64364389999537,1,84.66243530000793,84.66460329999973,84.66460329999973,85.14426509999612,up,85.14430850000645,85.14432490000036,None,0.3094481000007363,None,,,,,,,,,,,,,003,001,2026-01-21_16h26.10.246,NESC3137_EEG_experiment,,2025.1.1,141.96801744858067,2026-01-21 16h26.32.575469 -0400,
60,0,60,up,None,0.2474891000019852,0.19202809999114834,,,60,0,60,0,85.15250209999795,,,,,,,,,,,,,,,,,,,,85.14443810000375,85.15250209999795,85.80656769999769,85.7900537000096,1,85.80478020000737,85.80656769999769,85.80656769999769,86.29490599999554,up,86.29494770000747,86.29496440000366,None,0.2474891000019852,0.19202809999114834,,,,,,,,,,,,,003,001,2026-01-21_16h26.10.246,NESC3137_EEG_experiment,,2025.1.1,141.96801744858067,2026-01-21 16h26.32.575469 -0400,
61,0,61,up,None,0.30064309999579564,None,,,61,0,61,0,86.30227169999853,,,,,,,,,,,,,,,,,,,,86.29507659999945,86.30227169999853,86.96140080000623,86.94795349999913,1,86.95921960000123,86.96140080000623,86.96140080000623,87.44859580000048,up,87.44864360000065,87.44866100000218,None,0.30064309999579564,None,,,,,,,,,,,,,003,001,2026-01-21_16h26.10.246,NESC3137_EEG_experiment,,2025.1.1,141.96801744858067,2026-01-21 16h26.32.575469 -0400,
62,0,62,down,None,0.3214960000041174,None,,,62,0,62,0,87.45564430000377,,,,,,,,,,,,,,,,,,,,87.44877820000693,87.45564430000377,88.16461829999753,88.14980719999585,2,88.162505100001,88.16461829999753,88.16461829999753,88.6516655000014,down,88.65170840000792,88.65172570000868,None,0.3214960000041174,None,,,,,,,,,,,,,003,001,2026-01-21_16h26.10.246,NESC3137_EEG_experiment,,2025.1.1,141.96801744858067,2026-01-21 16h26.32.575469 -0400,
63,0,63,up,None,0.35709470001165755,None,,,63,0,63,0,88.6586787999986,,,,,,,,,,,,,,,,,,,,88.65183919999981,88.6586787999986,89.30495520000113,89.29096539999591,1,89.30296319999616,89.30495520000113,89.30495520000113,89.79208220000146,up,89.7921500000084,89.79218469999614,None,0.35709470001165755,None,,,,,,,,,,,,,003,001,2026-01-21_16h26.10.246,NESC3137_EEG_experiment,,2025.1.1,141.96801744858067,2026-01-21 16h26.32.575469 -0400,
64,0,64,up,None,0.3944119000079809,None,,,64,0,64,0,89.79889970000659,,,,,,,,,,,,,,,,,,,,89.79236210000818,89.79889970000659,90.35567440000887,90.34224270000414,1,90.35384560000966,90.35567440000887,90.35567440000887,90.8427548000036,up,90.84281539999938,90.84284769999795,None,0.3944119000079809,None,,,,,,,,,,,,,003,001,2026-01-21_16h26.10.246,NESC3137_EEG_experiment,,2025.1.1,141.96801744858067,2026-01-21 16h26.32.575469 -0400,
65,0,65,up,None,0.3548494999995455,None,,,65,0,65,0,90.84957289999875,,,,,,,,,,,,,,,,,,,,90.84301740000956,90.84957289999875,91.72379250000813,91.70570730000327,1,91.72180780000053,91.72379250000813,91.72379250000813,92.21075640000345,up,92.2107992000092,92.21081830000912,None,0.3548494999995455,None,,,,,,,,,,,,,003,001,2026-01-21_16h26.10.246,NESC3137_EEG_experiment,,2025.1.1,141.96801744858067,2026-01-21 16h26.32.575469 -0400,
66,0,66,down,None,0.3152177000010852,None,,,66,0,66,0,92.21793830000388,,,,,,,,,,,,,,,,,,,,92.21093139999721,92.21793830000388,93.1148591000092,93.10071120000794,2,93.11284090000845,93.1148591000092,93.1148591000092,93.60227590000432,down,93.60232210000686,93.60234050000145,None,0.3152177000010852,None,,,,,,,,,,,,,003,001,2026-01-21_16h26.10.246,NESC3137_EEG_experiment,,2025.1.1,141.96801744858067,2026-01-21 16h26.32.575469 -0400,
67,0,67,down,None,0.3209502999961842,None,,,67,0,67,0,93.60863560000143,,,,,,,,,,,,,,,,,,,,93.60246270000061,93.60863560000143,94.48504529999627,94.46998080000049,2,94.48240000000806,94.48504529999627,94.48504529999627,94.9721969999955,down,94.97223949999898,94.97225720000279,None,0.3209502999961842,None,,,,,,,,,,,,,003,001,2026-01-21_16h26.10.246,NESC3137_EEG_experiment,,2025.1.1,141.96801744858067,2026-01-21 16h26.32.575469 -0400,
68,0,68,up,None,0.40321360000234563,None,,,68,0,68,0,94.97995340000489,,,,,,,,,,,,,,,,,,,,94.97236980000162,94.97995340000489,95.62687340000411,95.61212700000033,1,95.62474330000987,95.62687340000411,95.62687340000411,96.11470740000368,up,96.1147684000025,96.11479190000682,None,0.40321360000234563,None,,,,,,,,,,,,,003,001,2026-01-21_16h26.10.246,NESC3137_EEG_experiment,,2025.1.1,141.96801744858067,2026-01-21 16h26.32.575469 -0400,
69,0,69,up,None,0.3834677999984706,None,,,69,0,69,0,96.12221420000424,,,,,,,,,,,,,,,,,,,,96.11492380000709,96.12221420000424,96.98258429999987,96.96892590000061,1,96.98084329999983,96.98258429999987,96.98258429999987,97.46958499999892,up,97.4696294000023,97.46964650000155,None,0.3834677999984706,None,,,,,,,,,,,,,003,001,2026-01-21_16h26.10.246,NESC3137_EEG_experiment,,2025.1.1,141.96801744858067,2026-01-21 16h26.32.575469 -0400,
70,0,70,down,None,0.3770814000017708,None,,,70,0,70,0,97.47662080000737,,,,,,,,,,,,,,,,,,,,97.46976000000723,97.47662080000737,98.21295620000456,98.1988485000038,2,98.21050960000139,98.21295620000456,98.21295620000456,98.70075540000107,down,98.70081880000362,98.70084099999804,None,0.3770814000017708,None,,,,,,,,,,,,,003,001,2026-01-21_16h26.10.246,NESC3137_EEG_experiment,,2025.1.1,141.96801744858067,2026-01-21 16h26.32.575469 -0400,
71,0,71,up,None,0.3525671999959741,None,,,71,0,71,0,98.70704520000436,,,,,,,,,,,,,,,,,,,,98.70096030000423,98.70704520000436,99.64542640000582,99.63144599999941,1,99.64365399999951,99.64542640000582,99.64542640000582,100.13310800000909,up,100.13315480000165,100.13317300000926,None,0.3525671999959741,None,,,,,,,,,,,,,003,001,2026-01-21_16h26.10.246,NESC3137_EEG_experiment,,2025.1.1,141.96801744858067,2026-01-21 16h26.32.575469 -0400,
72,0,72,down,None,0.33465350000187755,None,,,72,0,72,0,100.13944120000815,,,,,,,,,,,,,,,,,,,,100.1332914000086,100.13944120000815,100.69537800000398,100.68232649999845,2,100.69356519999565,100.69537800000398,100.69537800000398,101.18355440000596,down,101.18360820000817,101.18362550000893,None,0.33465350000187755,None,,,,,,,,,,,,,003,001,2026-01-21_16h26.10.246,NESC3137_EEG_experiment,,2025.1.1,141.96801744858067,2026-01-21 16h26.32.575469 -0400,
73,0,73,down,None,0.3393726000067545,None,,,73,0,73,0,101.18911540000408,,,,,,,,,,,,,,,,,,,,101.1837763000076,101.18911540000408,101.75462210000842,101.7395714000013,2,101.75270939999609,101.75462210000842,101.75462210000842,102.24417119999998,down,102.24423670000397,102.2442674000049,None,0.3393726000067545,None,,,,,,,,,,,,,003,001,2026-01-21_16h26.10.246,NESC3137_EEG_experiment,,2025.1.1,141.96801744858067,2026-01-21 16h26.32.575469 -0400,
74,0,74,down,None,0.3851337000087369,None,,,74,0,74,0,102.25014889999875,,,,,,,,,,,,,,,,,,,,102.24443980000797,102.25014889999875,102.81293149999692,102.79951589999837,2,102.81108210000093,102.81293149999692,102.81293149999692,103.29987699999765,down,103.29992200000561,103.29993930000637,None,0.3851337000087369,None,,,,,,,,,,,,,003,001,2026-01-21_16h26.10.246,NESC3137_EEG_experiment,,2025.1.1,141.96801744858067,2026-01-21 16h26.32.575469 -0400,
75,0,75,up,None,0.34780899999896064,None,,,75,0,75,0,103.30695530000958,,,,,,,,,,,,,,,,,,,,103.3000563000096,103.30695530000958,103.89026400000148,103.8764353000006,1,103.88822200000868,103.89026400000148,103.89026400000148,104.37763560000167,up,104.37768330000108,104.37770110000565,None,0.34780899999896064,None,,,,,,,,,,,,,003,001,2026-01-21_16h26.10.246,NESC3137_EEG_experiment,,2025.1.1,141.96801744858067,2026-01-21 16h26.32.575469 -0400,
76,0,76,up,None,0.38557259998924565,None,,,76,0,76,0,104.38398520000919,,,,,,,,,,,,,,,,,,,,104.37782010000956,104.38398520000919,105.09284610000032,105.07965139999578,1,105.09105360000103,105.09284610000032,105.09284610000032,105.57993500000157,up,105.57997790000809,105.57999569999811,None,0.38557259998924565,None,,,,,,,,,,,,,003,001,2026-01-21_16h26.10.246,NESC3137_EEG_experiment,,2025.1.1,141.96801744858067,2026-01-21 16h26.32.575469 -0400,
77,0,77,down,None,0.3659535000042524,None,,,77,0,77,0,105.58796299999813,,,,,,,,,,,,,,,,,,,,105.58012159999635,105.58796299999813,106.33622650000325,106.32300489999761,2,106.33418079999683,106.33622650000325,106.33622650000325,106.82332049999968,down,106.82336350000696,106.82338119999622,None,0.3659535000042524,None,,,,,,,,,,,,,003,001,2026-01-21_16h26.10.246,NESC3137_EEG_experiment,,2025.1.1,141.96801744858067,2026-01-21 16h26.32.575469 -0400,
78,0,78,None,None,,,,,78,0,78,0,106.83064490000834,,,,,,,,,,,,,,,,,,,,106.82349989999784,106.83064490000834,107.6325635999965,107.61483479999879,2,107.63075430000026,107.6325635999965,107.6325635999965,108.12109640000563,None,108.12114820000716,108.12117880000733,None,,,,,,,,,,,,,,,003,001,2026-01-21_16h26.10.246,NESC3137_EEG_experiment,,2025.1.1,141.96801744858067,2026-01-21 16h26.32.575469 -0400,
79,0,79,down,None,0.3811979000020074,None,,,79,0,79,0,108.12774880000507,,,,,,,,,,,,,,,,,,,,108.12130400000024,108.12774880000507,108.7287811999995,108.71222240000498,2,108.72698999999557,108.7287811999995,108.7287811999995,109.21742180000001,down,109.2174670999957,109.2174842999957,None,0.3811979000020074,None,,,,,,,,,,,,,003,001,2026-01-21_16h26.10.246,NESC3137_EEG_experiment,,2025.1.1,141.96801744858067,2026-01-21 16h26.32.575469 -0400,
80,0,80,down,None,0.36103990000265185,None,,,80,0,80,0,109.22518960000889,,,,,,,,,,,,,,,,,,,,109.21759960000054,109.22518960000889,109.78895699999703,109.77428060000238,2,109.78670189999684,109.78895699999703,109.78895699999703,110.27639130000898,down,110.27644240000518,110.27646029999596,None,0.36103990000265185,None,,,,,,,,,,,,,003,001,2026-01-21_16h26.10.246,NESC3137_EEG_experiment,,2025.1.1,141.96801744858067,2026-01-21 16h26.32.575469 -0400,
81,0,81,up,None,0.38221779999730643,None,,,81,0,81,0,110.28284820000408,,,,,,,,,,,,,,,,,,,,110.2765808999975,110.28284820000408,111.1038058999984,111.08854490000522,1,111.10140400000091,111.1038058999984,111.1038058999984,111.5915485000005,up,111.59159189999627,111.5916092999978,None,0.38221779999730643,None,,,,,,,,,,,,,003,001,2026-01-21_16h26.10.246,NESC3137_EEG_experiment,,2025.1.1,141.96801744858067,2026-01-21 16h26.32.575469 -0400,
82,0,82,up,None,0.33070109999971464,None,,,82,0,82,0,111.59838360000867,,,,,,,,,,,,,,,,,,,,111.59172700000636,111.59838360000867,112.30727309999929,112.29310599999735,1,112.30540759999712,112.30727309999929,112.30727309999929,112.79485659999773,up,112.7948985999974,112.79491599999892,None,0.33070109999971464,None,,,,,,,,,,,,,003,001,2026-01-21_16h26.10.246,NESC3137_EEG_experiment,,2025.1.1,141.96801744858067,2026-01-21 16h26.32.575469 -0400,
83,0,83,up,None,0.3618916000123136,None,,,83,0,83,0,112.80103360000066,,,,,,,,,,,,,,,,,,,,112.79503449999902,112.80103360000066,113.56466139999975,113.55138129999978,1,113.56262320000678,113.56466139999975,113.56466139999975,114.0522670000064,up,114.05230999999912,114.05232689999684,None,0.3618916000123136,None,,,,,,,,,,,,,003,001,2026-01-21_16h26.10.246,NESC3137_EEG_experiment,,2025.1.1,141.96801744858067,2026-01-21 16h26.32.575469 -0400,
84,0,84,down,None,0.3600883999897633,None,,,84,0,84,0,114.05889270000625,,,,,,,,,,,,,,,,,,,,114.05244210000092,114.05889270000625,114.66985370000475,114.65624480000406,2,114.66795109999657,114.66985370000475,114.66985370000475,115.15695659999619,down,115.15701670000271,115.1570478000067,None,0.3600883999897633,None,,,,,,,,,,,,,003,001,2026-01-21_16h26.10.246,NESC3137_EEG_experiment,,2025.1.1,141.96801744858067,2026-01-21 16h26.32.575469 -0400,
85,0,85,up,None,0.3638566000008723,None,,,85,0,85,0,115.16382820000581,,,,,,,,,,,,,,,,,,,,115.1572210000013,115.16382820000581,115.97813010000391,115.96312970000145,1,115.97612410000875,115.97813010000391,115.97813010000391,116.4660184999957,up,116.46606380000594,116.46608150000975,None,0.3638566000008723,None,,,,,,,,,,,,,003,001,2026-01-21_16h26.10.246,NESC3137_EEG_experiment,,2025.1.1,141.96801744858067,2026-01-21 16h26.32.575469 -0400,
86,0,86,down,None,0.2956104999902891,0.18399760000465903,,,86,0,86,0,116.4738173000078,,,,,,,,,,,,,,,,,,,,116.46619900000223,116.4738173000078,117.23038940000697,117.2170538000064,2,117.22835639999539,117.23038940000697,117.23038940000697,117.71722240000963,down,117.7172797999956,117.71731500000169,None,0.2956104999902891,0.18399760000465903,,,,,,,,,,,,,003,001,2026-01-21_16h26.10.246,NESC3137_EEG_experiment,,2025.1.1,141.96801744858067,2026-01-21 16h26.32.575469 -0400,
87,0,87,up,None,0.376385499999742,None,,,87,0,87,0,117.72421630000463,,,,,,,,,,,,,,,,,,,,117.71748459999799,117.72421630000463,118.66187429999991,118.64886339999794,1,118.65986339999654,118.66187429999991,118.66187429999991,119.14962120000564,up,119.14966690000438,119.1496957000054,None,0.376385499999742,None,,,,,,,,,,,,,003,001,2026-01-21_16h26.10.246,NESC3137_EEG_experiment,,2025.1.1,141.96801744858067,2026-01-21 16h26.32.575469 -0400,
88,0,88,down,None,0.3434938999998849,None,,,88,0,88,0,119.15548719999788,,,,,,,,,,,,,,,,,,,,119.14988369999628,119.15548719999788,119.76646890000848,119.7532113000052,2,119.76465710000775,119.76646890000848,119.76646890000848,120.25345950000337,down,120.25350200000685,120.25351940000837,None,0.3434938999998849,None,,,,,,,,,,,,,003,001,2026-01-21_16h26.10.246,NESC3137_EEG_experiment,,2025.1.1,141.96801744858067,2026-01-21 16h26.32.575469 -0400,
89,0,89,None,None,,,,,89,0,89,0,120.26083640000434,,,,,,,,,,,,,,,,,,,,120.25363520000246,120.26083640000434,120.8096932000044,120.79547599999933,1,120.80782570000156,120.8096932000044,120.8096932000044,121.2968455000082,None,121.2968841999973,121.29690180000034,None,,,,,,,,,,,,,,,003,001,2026-01-21_16h26.10.246,NESC3137_EEG_experiment,,2025.1.1,141.96801744858067,2026-01-21 16h26.32.575469 -0400,
90,0,90,down,None,0.3403623000049265,None,,,90,0,90,0,121.30346110000391,,,,,,,,,,,,,,,,,,,,121.2970256999979,121.30346110000391,121.97767870000098,121.96488189999945,2,121.97587219999696,121.97767870000098,121.97767870000098,122.46579210000345,down,122.46584950000397,122.4658683000016,None,0.3403623000049265,None,,,,,,,,,,,,,003,001,2026-01-21_16h26.10.246,NESC3137_EEG_experiment,,2025.1.1,141.96801744858067,2026-01-21 16h26.32.575469 -0400,
91,0,91,down,None,0.3682412999914959,None,,,91,0,91,0,122.47148290000041,,,,,,,,,,,,,,,,,,,,122.4660264999984,122.47148290000041,123.26970050000818,123.25714539999899,2,123.2676516000065,123.26970050000818,123.26970050000818,123.75784170000406,down,123.75788550000289,123.75790300000517,None,0.3682412999914959,None,,,,,,,,,,,,,003,001,2026-01-21_16h26.10.246,NESC3137_EEG_experiment,,2025.1.1,141.96801744858067,2026-01-21 16h26.32.575469 -0400,
92,0,92,up,None,0.45711580000352114,None,,,92,0,92,0,123.76364810000814,,,,,,,,,,,,,,,,,,,,123.75802280000062,123.76364810000814,124.72483980000834,124.70938080000633,1,124.72195350000402,124.72483980000834,124.72483980000834,125.21288160000404,up,125.21292420000827,125.21294140000828,None,0.45711580000352114,None,,,,,,,,,,,,,003,001,2026-01-21_16h26.10.246,NESC3137_EEG_experiment,,2025.1.1,141.96801744858067,2026-01-21 16h26.32.575469 -0400,
93,0,93,up,None,0.3388377999945078,None,,,93,0,93,0,125.21945160000178,,,,,,,,,,,,,,,,,,,,125.2130610000022,125.21945160000178,126.01913729999796,126.00483910000185,1,126.01700890000211,126.01913729999796,126.01913729999796,126.50600809999742,up,126.50605090000317,126.50606770000013,None,0.3388377999945078,None,,,,,,,,,,,,,003,001,2026-01-21_16h26.10.246,NESC3137_EEG_experiment,,2025.1.1,141.96801744858067,2026-01-21 16h26.32.575469 -0400,
94,0,94,down,None,0.34385680001287255,None,,,94,0,94,0,126.51285389999975,,,,,,,,,,,,,,,,,,,,126.50618609999947,126.51285389999975,127.12658009999723,127.11189909999666,2,127.12468930000614,127.12658009999723,127.12658009999723,127.6151397000067,down,127.61518400000932,127.61520129999553,None,0.34385680001287255,None,,,,,,,,,,,,,003,001,2026-01-21_16h26.10.246,NESC3137_EEG_experiment,,2025.1.1,141.96801744858067,2026-01-21 16h26.32.575469 -0400,
95,0,95,down,None,0.32875320001039654,None,,,95,0,95,0,127.62108930000977,,,,,,,,,,,,,,,,,,,,127.61531850000028,127.62108930000977,128.20518420000735,128.19133200000215,2,128.20346010000503,128.20518420000735,128.20518420000735,128.6923691999982,down,128.69241260000854,128.69243070000084,None,0.32875320001039654,None,,,,,,,,,,,,,003,001,2026-01-21_16h26.10.246,NESC3137_EEG_experiment,,2025.1.1,141.96801744858067,2026-01-21 16h26.32.575469 -0400,
96,0,96,up,None,0.3765235000028042,None,,,96,0,96,0,128.6999652000086,,,,,,,,,,,,,,,,,,,,128.69254720000026,128.6999652000086,129.58940270000312,129.57427749999624,1,129.58731099999568,129.58940270000312,129.58940270000312,130.0763963000063,up,130.07643960000132,130.07645700000285,None,0.3765235000028042,None,,,,,,,,,,,,,003,001,2026-01-21_16h26.10.246,NESC3137_EEG_experiment,,2025.1.1,141.96801744858067,2026-01-21 16h26.32.575469 -0400,
97,0,97,down,None,0.3016849999985425,0.16795420000562444,,,97,0,97,0,130.0831754999963,,,,,,,,,,,,,,,,,,,,130.07657319999998,130.0831754999963,130.9522821999999,130.93814179999754,2,130.9504020000022,130.9522821999999,130.9522821999999,131.43919010000536,down,131.43924100000004,131.43926040000224,None,0.3016849999985425,0.16795420000562444,,,,,,,,,,,,,003,001,2026-01-21_16h26.10.246,NESC3137_EEG_experiment,,2025.1.1,141.96801744858067,2026-01-21 16h26.32.575469 -0400,
98,0,98,up,None,0.40112549999321345,None,,,98,0,98,0,131.44617090000247,,,,,,,,,,,,,,,,,,,,131.43938850000268,131.44617090000247,132.02884780000022,132.01591470000858,1,132.0269590000098,132.02884780000022,132.02884780000022,132.5172045000072,up,132.51725180000358,132.51727080000273,None,0.40112549999321345,None,,,,,,,,,,,,,003,001,2026-01-21_16h26.10.246,NESC3137_EEG_experiment,,2025.1.1,141.96801744858067,2026-01-21 16h26.32.575469 -0400,
99,0,99,up,None,0.3978069000004325,None,,,99,0,99,0,132.52335850000964,,,,,,,,,,,,,,,,,,,,132.5174005000008,132.52335850000964,133.4884818999999,133.47442169999704,1,133.48596170000383,133.4884818999999,133.4884818999999,133.975720500006,up,133.97578829999838,133.97580759999983,None,0.3978069000004325,None,,,,,,,,,,,,,003,001,2026-01-21_16h26.10.246,NESC3137_EEG_experiment,,2025.1.1,141.96801744858067,2026-01-21 16h26.32.575469 -0400,
100,0,100,up,None,0.42144620000908617,0.04034009999304544,,,100,0,100,0,133.9834996999998,,,,,,,,,,,,,,,,,,,,133.9759650000051,133.9834996999998,134.92848689999664,134.9131214000081,1,134.925702499997,134.92848689999664,134.92848689999664,135.41651320000528,up,135.41657480000868,135.41659370000707,None,0.42144620000908617,0.04034009999304544,,,,,,,,,,,,,003,001,2026-01-21_16h26.10.246,NESC3137_EEG_experiment,,2025.1.1,141.96801744858067,2026-01-21 16h26.32.575469 -0400,
101,0,101,down,None,0.39491450000787154,None,,,101,0,101,0,135.42218500000308,,,,,,,,,,,,,,,,,,,,135.41671459999634,135.42218500000308,136.3150874999992,136.29897840000922,2,136.31306369999947,136.3150874999992,136.3150874999992,136.8042301999958,down,136.80429139999615,136.80432199999632,None,0.39491450000787154,None,,,,,,,,,,,,,003,001,2026-01-21_16h26.10.246,NESC3137_EEG_experiment,,2025.1.1,141.96801744858067,2026-01-21 16h26.32.575469 -0400,
102,0,102,None,None,,,,,102,0,102,0,136.8110435999988,,,,,,,,,,,,,,,,,,,,136.80449890000455,136.8110435999988,137.38668940000935,137.37320820000605,1,137.38428840000415,137.38668940000935,137.38668940000935,137.87347859999863,None,137.8735502000054,137.87359650000872,None,,,,,,,,,,,,,,,003,001,2026-01-21_16h26.10.246,NESC3137_EEG_experiment,,2025.1.1,141.96801744858067,2026-01-21 16h26.32.575469 -0400,
103,0,103,down,None,0.3116167999978643,0.15181929999380372,,,103,0,103,0,137.88000230000762,,,,,,,,,,,,,,,,,,,,137.87375990000146,137.88000230000762,138.45447799999965,138.43601190000481,2,138.45227670000168,138.45447799999965,138.45447799999965,138.94254770000407,down,138.9425939000066,138.9426109000051,None,0.3116167999978643,0.15181929999380372,,,,,,,,,,,,,003,001,2026-01-21_16h26.10.246,NESC3137_EEG_experiment,,2025.1.1,141.96801744858067,2026-01-21 16h26.32.575469 -0400,
104,0,104,up,None,0.36994530000083614,None,,,104,0,104,0,138.94911760000105,,,,,,,,,,,,,,,,,,,,138.94273280000198,138.94911760000105,139.73996770000667,139.72716429999855,1,139.73798499999975,139.73996770000667,139.73996770000667,140.22721569999703,up,140.22725039999932,140.22726490000787,None,0.36994530000083614,None,140.23410909999802,140.23410909999802,,,,,,,,,,,003,001,2026-01-21_16h26.10.246,NESC3137_EEG_experiment,,2025.1.1,141.96801744858067,2026-01-21 16h26.32.575469 -0400,
105,0,105,None,None,,,,,105,0,105,0,140.23410909999802,,,,,,,,,,,,,,,,,,,,140.2273686999979,140.23410909999802,140.79047790000914,140.77591579999716,1,140.7878464999958,140.79047790000914,140.79047790000914,141.2792427000095,None,141.27928489999613,141.2793027000007,None,,,,,,,,,,,,,,,003,001,2026-01-21_16h26.10.246,NESC3137_EEG_experiment,,2025.1.1,141.96801744858067,2026-01-21 16h26.32.575469 -0400,
106,0,106,down,None,0.3600592000002507,None,,,106,0,106,0,141.284711100001,,,,,,,,,,,,,,,,,,,,141.27942130000156,141.284711100001,141.80630490000476,141.79230300000927,2,141.80453979999584,141.80630490000476,141.80630490000476,142.2945180000097,down,142.29457820000243,142.2946091000049,None,0.3600592000002507,None,,,,,,,,,,,,,003,001,2026-01-21_16h26.10.246,NESC3137_EEG_experiment,,2025.1.1,141.96801744858067,2026-01-21 16h26.32.575469 -0400,
107,0,107,down,None,0.3886523999972269,None,,,107,0,107,0,142.30030719999922,,,,,,,,,,,,,,,,,,,,142.2947417999967,142.30030719999922,142.80926609999733,142.79354060000333,2,142.80745770000794,142.80926609999733,142.80926609999733,143.2920657000068,down,143.29212359999656,143.29214220000722,None,0.3886523999972269,None,143.29732979999972,143.29732979999972,,,,,,,,,,,003,001,2026-01-21_16h26.10.246,NESC3137_EEG_experiment,,2025.1.1,141.96801744858067,2026-01-21 16h26.32.575469 -0400,
108,0,108,down,None,0.35873999999603257,0.11997109999356326,,,108,0,108,0,143.29732979999972,,,,,,,,,,,,,,,,,,,,143.29231319999963,143.29732979999972,144.18320200000016,144.1677367000084,2,144.18112340000516,144.18320200000016,144.18320200000016,144.67138420000265,down,144.67142850000528,144.67144610000832,None,0.35873999999603257,0.11997109999356326,,,,,,,,,,,,,003,001,2026-01-21_16h26.10.246,NESC3137_EEG_experiment,,2025.1.1,141.96801744858067,2026-01-21 16h26.32.575469 -0400,
109,0,109,down,None,0.2900785000092583,0.11228020000271499,,,109,0,109,0,144.67794449999928,,,,,,,,,,,,,,,,,,,,144.67156570000225,144.67794449999928,145.64395900000818,145.62990870000795,2,145.6419009999954,145.64395900000818,145.64395900000818,146.13141810000525,down,146.1314626999956,146.13147999999637,None,0.2900785000092583,0.11228020000271499,,,,,,,,,,,,,003,001,2026-01-21_16h26.10.246,NESC3137_EEG_experiment,,2025.1.1,141.96801744858067,2026-01-21 16h26.32.575469 -0400,
110,0,110,None,None,,,,,110,0,110,0,146.1377317000006,,,,,,,,,,,,,,,,,,,,146.13160029999563,146.1377317000006,146.78354590000527,146.7698761000065,1,146.7816545000096,146.78354590000527,146.78354590000527,147.27061920000415,None,147.27066140000534,147.27067910000915,None,,,,,,,,,,,,,,,003,001,2026-01-21_16h26.10.246,NESC3137_EEG_experiment,,2025.1.1,141.96801744858067,2026-01-21 16h26.32.575469 -0400,
111,0,111,down,None,0.3590107000054559,None,,,111,0,111,0,147.27761600000667,,,,,,,,,,,,,,,,,,,,147.27079690000392,147.27761600000667,148.16702110000188,148.1527444999956,2,148.16491390000738,148.16702110000188,148.16702110000188,148.65420370000356,down,148.65427890000865,148.65431060000265,None,0.3590107000054559,None,,,,,,,,,,,,,003,001,2026-01-21_16h26.10.246,NESC3137_EEG_experiment,,2025.1.1,141.96801744858067,2026-01-21 16h26.32.575469 -0400,
112,0,112,down,None,0.3497693999961484,None,,,112,0,112,0,148.66182170000684,,,,,,,,,,,,,,,,,,,,148.65448130000732,148.66182170000684,149.53612600000633,149.5221262999985,2,149.53405360000033,149.53612600000633,149.53612600000633,150.0235257000022,down,150.02357510000002,150.02359320000687,None,0.3497693999961484,None,,,,,,,,,,,,,003,001,2026-01-21_16h26.10.246,NESC3137_EEG_experiment,,2025.1.1,141.96801744858067,2026-01-21 16h26.32.575469 -0400,
113,0,113,up,None,0.4236215999990236,None,,,113,0,113,0,150.0303094999981,,,,,,,,,,,,,,,,,,,,150.02370950000477,150.0303094999981,150.7027461999969,150.68397070000356,1,150.6995975000027,150.7027461999969,150.7027461999969,151.19086030000472,up,151.19095060000836,151.19098719999602,None,0.4236215999990236,None,,,,,,,,,,,,,003,001,2026-01-21_16h26.10.246,NESC3137_EEG_experiment,,2025.1.1,141.96801744858067,2026-01-21 16h26.32.575469 -0400,
114,0,114,up,None,0.4392463999975007,None,,,114,0,114,0,151.19736869999906,,,,,,,,,,,,,,,,,,,,151.1911481999996,151.19736869999906,151.75931160000619,151.74532739999995,1,151.75680289999582,151.75931160000619,151.75931160000619,152.24715900000592,up,152.24720260000322,152.2472201000055,None,0.4392463999975007,None,,,,,,,,,,,,,003,001,2026-01-21_16h26.10.246,NESC3137_EEG_experiment,,2025.1.1,141.96801744858067,2026-01-21 16h26.32.575469 -0400,
115,0,115,up,None,0.365369399994961,None,,,115,0,115,0,152.25332740000158,,,,,,,,,,,,,,,,,,,,152.24733739999647,152.25332740000158,152.96849680000742,152.95483600000443,1,152.96635309999692,152.96849680000742,152.96849680000742,153.4557754999987,up,153.45583649999753,153.45586919999914,None,0.365369399994961,None,,,,,,,,,,,,,003,001,2026-01-21_16h26.10.246,NESC3137_EEG_experiment,,2025.1.1,141.96801744858067,2026-01-21 16h26.32.575469 -0400,
116,0,116,up,None,0.32336949999444187,None,,,116,0,116,0,153.4620475999982,,,,,,,,,,,,,,,,,,,,153.45603650000703,153.4620475999982,154.22652850000304,154.2132314000046,1,154.22470710000198,154.22652850000304,154.22652850000304,154.71349219999684,up,154.71355500000936,154.7135860999988,None,0.32336949999444187,None,,,,,,,,,,,,,003,001,2026-01-21_16h26.10.246,NESC3137_EEG_experiment,,2025.1.1,141.96801744858067,2026-01-21 16h26.32.575469 -0400,
117,0,117,up,None,0.30542430000787135,None,,,117,0,117,0,154.7202746999974,,,,,,,,,,,,,,,,,,,,154.71376210000017,154.7202746999974,155.27665290000732,155.26233350000985,1,155.27446300000884,155.27665290000732,155.27665290000732,155.76434300000255,up,155.76440390000062,155.7644261999958,None,0.30542430000787135,None,,,,,,,,,,,,,003,001,2026-01-21_16h26.10.246,NESC3137_EEG_experiment,,2025.1.1,141.96801744858067,2026-01-21 16h26.32.575469 -0400,
118,0,118,down,None,0.4038450000080047,None,,,118,0,118,0,155.77024820000224,,,,,,,,,,,,,,,,,,,,155.76458850000927,155.77024820000224,156.61815229999775,156.60389179999765,2,156.61630219999643,156.61815229999775,156.61815229999775,157.1052703000023,down,157.10531320000882,157.10532960000273,None,0.4038450000080047,None,,,,,,,,,,,,,003,001,2026-01-21_16h26.10.246,NESC3137_EEG_experiment,,2025.1.1,141.96801744858067,2026-01-21 16h26.32.575469 -0400,
119,0,119,up,None,0.4350141999893822,None,,,119,0,119,0,157.1118753000046,,,,,,,,,,,,,,,,,,,,157.1054429000069,157.1118753000046,157.7388559999963,157.7236311000015,1,157.73639570000523,157.7388559999963,157.7388559999963,158.2215073999978,up,158.22154389999923,158.22156020000693,None,0.4350141999893822,None,158.22724020000896,158.22724020000896,,,,,,,,,,,003,001,2026-01-21_16h26.10.246,NESC3137_EEG_experiment,,2025.1.1,141.96801744858067,2026-01-21 16h26.32.575469 -0400,
120,0,120,up,None,0.3100142999901436,None,,,120,0,120,0,158.22724020000896,,,,,,,,,,,,,,,,,,,,158.2216744000034,158.22724020000896,159.1038944000029,159.0897074000095,1,159.10201070000767,159.1038944000029,159.1038944000029,159.59271189999708,up,159.5927817000047,159.59280270000454,None,0.3100142999901436,None,,,,,,,,,,,,,003,001,2026-01-21_16h26.10.246,NESC3137_EEG_experiment,,2025.1.1,141.96801744858067,2026-01-21 16h26.32.575469 -0400,
121,0,121,up,None,0.35596639999130275,None,,,121,0,121,0,159.59851619999972,,,,,,,,,,,,,,,,,,,,159.59297789999982,159.59851619999972,160.15455610000936,160.14147940000112,1,160.15254840000125,160.15455610000936,160.15455610000936,160.64155790000223,up,160.6415921000007,160.64160640000773,None,0.35596639999130275,None,160.64852180000162,160.64852180000162,,,,,,,,,,,003,001,2026-01-21_16h26.10.246,NESC3137_EEG_experiment,,2025.1.1,141.96801744858067,2026-01-21 16h26.32.575469 -0400,
122,0,122,down,None,0.3698575000016717,None,,,122,0,122,0,160.64852180000162,,,,,,,,,,,,,,,,,,,,160.64171189999615,160.64852180000162,161.30799370000022,161.29435759999615,2,161.30612920000567,161.30799370000022,161.30799370000022,161.79503370000748,down,161.795097299997,161.79512799999793,None,0.3698575000016717,None,,,,,,,,,,,,,003,001,2026-01-21_16h26.10.246,NESC3137_EEG_experiment,,2025.1.1,141.96801744858067,2026-01-21 16h26.32.575469 -0400,
123,0,123,down,None,0.3069194000127027,0.135007199991378,,,123,0,123,0,161.80371320000268,,,,,,,,,,,,,,,,,,,,161.7953034000093,161.80371320000268,162.4359098999994,162.4210338999983,2,162.433970099999,162.4359098999994,162.4359098999994,162.9238733000093,down,162.92391759999737,162.92393520000041,None,0.3069194000127027,0.135007199991378,,,,,,,,,,,,,003,001,2026-01-21_16h26.10.246,NESC3137_EEG_experiment,,2025.1.1,141.96801744858067,2026-01-21 16h26.32.575469 -0400,
124,0,124,down,None,0.26355489999696147,0.1277974999975413,,,124,0,124,0,162.93178440000338,,,,,,,,,,,,,,,,,,,,162.92405490000965,162.93178440000338,163.69450730000972,163.68183230000432,2,163.69256049999967,163.69450730000972,163.69450730000972,164.18230030000268,down,164.18234510000912,164.1823621000076,None,0.26355489999696147,0.1277974999975413,,,,,,,,,,,,,003,001,2026-01-21_16h26.10.246,NESC3137_EEG_experiment,,2025.1.1,141.96801744858067,2026-01-21 16h26.32.575469 -0400,
125,0,125,down,None,0.26335709998966195,0.12793680001050234,,,125,0,125,0,164.1887204000086,,,,,,,,,,,,,,,,,,,,164.1824806000077,164.1887204000086,165.17454510000243,165.16070750000654,2,165.17258280000533,165.17454510000243,165.17454510000243,165.6625090000016,down,165.66256569999678,165.6625830999983,None,0.26335709998966195,0.12793680001050234,,,,,,,,,,,,,003,001,2026-01-21_16h26.10.246,NESC3137_EEG_experiment,,2025.1.1,141.96801744858067,2026-01-21 16h26.32.575469 -0400,
126,0,126,down,None,0.28752320000785403,0.17609670000092592,,,126,0,126,0,165.66950040000665,,,,,,,,,,,,,,,,,,,,165.6627087000088,165.66950040000665,166.2383198000025,166.22466350000468,2,166.2364940999978,166.2383198000025,166.2383198000025,166.72640010000032,down,166.72648739999568,166.72652189999644,None,0.28752320000785403,0.17609670000092592,,,,,,,,,,,,,003,001,2026-01-21_16h26.10.246,NESC3137_EEG_experiment,,2025.1.1,141.96801744858067,2026-01-21 16h26.32.575469 -0400,
127,0,127,up,None,0.4071727999980794,None,,,127,0,127,0,166.73211680000531,,,,,,,,,,,,,,,,,,,,166.72673249999934,166.73211680000531,167.41483570000855,167.3990002000064,1,167.41228400000546,167.41483570000855,167.41483570000855,167.90372760000173,up,167.90381659999548,167.90384690000792,None,0.4071727999980794,None,,,,,,,,,,,,,003,001,2026-01-21_16h26.10.246,NESC3137_EEG_experiment,,2025.1.1,141.96801744858067,2026-01-21 16h26.32.575469 -0400,
128,0,128,down,None,0.41175709999515675,None,,,128,0,128,0,167.90969070000574,,,,,,,,,,,,,,,,,,,,167.9040105000022,167.90969070000574,168.53858249999757,168.52115349999804,1,168.53642600000603,168.53858249999757,168.53858249999757,169.02753030000895,down,169.02759700000752,169.0276179000066,None,0.41175709999515675,None,,,,,,,,,,,,,003,001,2026-01-21_16h26.10.246,NESC3137_EEG_experiment,,2025.1.1,141.96801744858067,2026-01-21 16h26.32.575469 -0400,
129,0,129,up,None,0.4232357000000775,None,,,129,0,129,0,169.03368000000773,,,,,,,,,,,,,,,,,,,,169.02773499999603,169.03368000000773,169.75075530000322,169.73528360000637,1,169.74825830000918,169.75075530000322,169.75075530000322,170.23956180000096,up,170.23960810000426,170.2396246999997,None,0.4232357000000775,None,,,,,,,,,,,,,003,001,2026-01-21_16h26.10.246,NESC3137_EEG_experiment,,2025.1.1,141.96801744858067,2026-01-21 16h26.32.575469 -0400,
130,0,130,down,None,0.35153110000828747,None,,,130,0,130,0,170.2451235000044,,,,,,,,,,,,,,,,,,,,170.23977680000826,170.2451235000044,170.83032330000424,170.81519910000497,2,170.82837709999876,170.83032330000424,170.83032330000424,171.31739569999627,down,171.31743789999746,171.31745470000897,None,0.35153110000828747,None,,,,,,,,,,,,,003,001,2026-01-21_16h26.10.246,NESC3137_EEG_experiment,,2025.1.1,141.96801744858067,2026-01-21 16h26.32.575469 -0400,
131,0,131,down,None,0.27297799999359995,0.12796159999561496,,,131,0,131,0,171.32568850000098,,,,,,,,,,,,,,,,,,,,171.31757020000077,171.32568850000098,172.22888490000332,172.21496019999904,2,172.22654489999695,172.22888490000332,172.22888490000332,172.71781230000488,down,172.71794180000143,172.71797060000245,None,0.27297799999359995,0.12796159999561496,,,,,,,,,,,,,003,001,2026-01-21_16h26.10.246,NESC3137_EEG_experiment,,2025.1.1,141.96801744858067,2026-01-21 16h26.32.575469 -0400,
132,0,132,up,None,0.42656279999937396,None,,,132,0,132,0,172.72273120000318,,,,,,,,,,,,,,,,,,,,172.71814989999984,172.72273120000318,173.52327820000937,173.50874479999766,1,173.5212087999971,173.52327820000937,173.52327820000937,174.01008010000805,up,174.0101413000084,174.0101724999986,None,0.42656279999937396,None,,,,,,,,,,,,,003,001,2026-01-21_16h26.10.246,NESC3137_EEG_experiment,,2025.1.1,141.96801744858067,2026-01-21 16h26.32.575469 -0400,
133,0,133,down,None,0.3205683999985922,0.15234480000799522,,,133,0,133,0,174.017251199999,,,,,,,,,,,,,,,,,,,,174.01035260000208,174.017251199999,174.9496061999962,174.93432319999556,2,174.94750540000678,174.9496061999962,174.9496061999962,175.4371237000014,down,175.43717780000588,175.43719579999743,None,0.3205683999985922,0.15234480000799522,,,,,,,,,,,,,003,001,2026-01-21_16h26.10.246,NESC3137_EEG_experiment,,2025.1.1,141.96801744858067,2026-01-21 16h26.32.575469 -0400,
134,0,134,down,None,0.30105100000218954,0.1441765000054147,,,134,0,134,0,175.4437304000021,,,,,,,,,,,,,,,,,,,,175.43731649999972,175.4437304000021,176.1927766000008,176.17975690000458,2,176.1908160000021,176.1927766000008,176.1927766000008,176.6799383000034,down,176.67998590000207,176.68000439999742,None,0.30105100000218954,0.1441765000054147,,,,,,,,,,,,,003,001,2026-01-21_16h26.10.246,NESC3137_EEG_experiment,,2025.1.1,141.96801744858067,2026-01-21 16h26.32.575469 -0400,
135,0,135,up,None,0.40607230000023264,None,,,135,0,135,0,176.68675120000262,,,,,,,,,,,,,,,,,,,,176.68014070000208,176.68675120000262,177.20775620000495,177.19369490000827,1,177.2057868999982,177.20775620000495,177.20775620000495,177.6947591000062,up,177.6948318000068,177.6948640000046,None,0.40607230000023264,None,,,,,,,,,,,,,003,001,2026-01-21_16h26.10.246,NESC3137_EEG_experiment,,2025.1.1,141.96801744858067,2026-01-21 16h26.32.575469 -0400,
136,0,136,down,None,0.37022719999367837,None,,,136,0,136,0,177.70167439999932,,,,,,,,,,,,,,,,,,,,177.69501180000952,177.70167439999932,178.45970490000036,178.44536349999544,2,178.45764809999673,178.45970490000036,178.45970490000036,178.9467113999999,down,178.9467541000049,178.94677070000034,None,0.37022719999367837,None,,,,,,,,,,,,,003,001,2026-01-21_16h26.10.246,NESC3137_EEG_experiment,,2025.1.1,141.96801744858067,2026-01-21 16h26.32.575469 -0400,
137,0,137,down,None,0.3365260999999009,None,,,137,0,137,0,178.95332400000188,,,,,,,,,,,,,,,,,,,,178.94688479999604,178.95332400000188,179.5734470000025,179.55928680000943,2,179.57090370000515,179.5734470000025,179.5734470000025,180.06034009999712,down,180.060384299999,180.0604020000028,None,0.3365260999999009,None,,,,,,,,,,,,,003,001,2026-01-21_16h26.10.246,NESC3137_EEG_experiment,,2025.1.1,141.96801744858067,2026-01-21 16h26.32.575469 -0400,
138,0,138,down,None,0.39175630001409445,None,,,138,0,138,0,180.06814390000363,,,,,,,,,,,,,,,,,,,,180.06051599999773,180.06814390000363,180.65411020000465,180.6379617000057,2,180.65217260000645,180.65411020000465,180.65411020000465,181.1427885000012,down,181.142875000005,181.14290810000966,None,0.39175630001409445,None,,,,,,,,,,,,,003,001,2026-01-21_16h26.10.246,NESC3137_EEG_experiment,,2025.1.1,141.96801744858067,2026-01-21 16h26.32.575469 -0400,
139,0,139,down,None,0.24278570000024047,0.1439605999912601,,,139,0,139,0,181.1494895000069,,,,,,,,,,,,,,,,,,,,181.14313320000656,181.1494895000069,181.8270646000019,181.8107971999998,2,181.8251411000092,181.8270646000019,181.8270646000019,182.31644140000571,down,182.31648380000843,182.31650070000615,None,0.24278570000024047,0.1439605999912601,,,,,,,,,,,,,003,001,2026-01-21_16h26.10.246,NESC3137_EEG_experiment,,2025.1.1,141.96801744858067,2026-01-21 16h26.32.575469 -0400,
140,0,140,down,None,0.2993695999903139,0.14389640001172666,,,140,0,140,0,182.3223708000005,,,,,,,,,,,,,,,,,,,,182.31661599999643,182.3223708000005,183.1225698000053,183.10836800000106,2,183.12074399999983,183.1225698000053,183.1225698000053,183.60969549999572,down,183.6097546999954,183.6097865000047,None,0.2993695999903139,0.14389640001172666,,,,,,,,,,,,,003,001,2026-01-21_16h26.10.246,NESC3137_EEG_experiment,,2025.1.1,141.96801744858067,2026-01-21 16h26.32.575469 -0400,
141,0,141,up,None,0.4512135999975726,None,,,141,0,141,0,183.61739290000696,,,,,,,,,,,,,,,,,,,,183.60995980000007,183.61739290000696,184.13869469999918,184.12346750000142,1,184.13685130000522,184.13869469999918,184.13869469999918,184.62588570000662,up,184.6259554999997,184.6259926000057,None,0.4512135999975726,None,,,,,,,,,,,,,003,001,2026-01-21_16h26.10.246,NESC3137_EEG_experiment,,2025.1.1,141.96801744858067,2026-01-21 16h26.32.575469 -0400,
142,0,142,down,None,0.28442009999707807,0.15200290000939276,,,142,0,142,0,184.63239290000638,,,,,,,,,,,,,,,,,,,,184.6261935000075,184.63239290000638,185.16937440000765,185.15365760000714,2,185.16708800000197,185.16937440000765,185.16937440000765,185.65868750000664,down,185.65873270000156,185.6587503000046,None,0.28442009999707807,0.15200290000939276,,,,,,,,,,,,,003,001,2026-01-21_16h26.10.246,NESC3137_EEG_experiment,,2025.1.1,141.96801744858067,2026-01-21 16h26.32.575469 -0400,
143,0,143,down,None,0.3925725000008242,None,,,143,0,143,0,185.6645381999988,,,,,,,,,,,,,,,,,,,,185.658878000002,185.6645381999988,186.22926000000734,186.21341389999725,2,186.22713549999753,186.22926000000734,186.22926000000734,186.71725600000354,down,186.71731130000262,186.7173291000072,None,0.3925725000008242,None,,,,,,,,,,,,,003,001,2026-01-21_16h26.10.246,NESC3137_EEG_experiment,,2025.1.1,141.96801744858067,2026-01-21 16h26.32.575469 -0400,
144,0,144,down,None,0.2237645999994129,0.16772820000187494,,,144,0,144,0,186.72407759999624,,,,,,,,,,,,,,,,,,,,186.71744550000585,186.72407759999624,187.51031389999844,187.49554410000565,2,187.50842349999584,187.51031389999844,187.51031389999844,187.99769440000819,down,187.99773669999558,187.99775330000557,None,0.2237645999994129,0.16772820000187494,,,,,,,,,,,,,003,001,2026-01-21_16h26.10.246,NESC3137_EEG_experiment,,2025.1.1,141.96801744858067,2026-01-21 16h26.32.575469 -0400,
145,0,145,up,None,0.4145033000095282,None,,,145,0,145,0,188.0056237000099,,,,,,,,,,,,,,,,,,,,187.99786859999585,188.0056237000099,188.58332960000553,188.56696999999986,1,188.58131710000453,188.58332960000553,188.58332960000553,189.07232600000862,up,189.0723691000021,189.0723854000098,None,0.4145033000095282,None,,,,,,,,,,,,,003,001,2026-01-21_16h26.10.246,NESC3137_EEG_experiment,,2025.1.1,141.96801744858067,2026-01-21 16h26.32.575469 -0400,
146,0,146,down,None,0.26629769999999553,0.08863099999143742,,,146,0,146,0,189.07933020000928,,,,,,,,,,,,,,,,,,,,189.07250639999984,189.07933020000928,189.72350350000488,189.70551890000934,1,189.72132660000352,189.72350350000488,189.72350350000488,190.21090099999856,down,190.21096599999873,190.2109969000012,None,0.26629769999999553,0.08863099999143742,,,,,,,,,,,,,003,001,2026-01-21_16h26.10.246,NESC3137_EEG_experiment,,2025.1.1,141.96801744858067,2026-01-21 16h26.32.575469 -0400,
147,0,147,up,None,0.42577439999149647,None,,,147,0,147,0,190.21832240000367,,,,,,,,,,,,,,,,,,,,190.21117209999647,190.21832240000367,191.01269770000363,190.9952013000002,1,191.01081610000983,191.01269770000363,191.01269770000363,191.50185200000124,up,191.50192290000268,191.50193959999888,None,0.42577439999149647,None,,,,,,,,,,,,,003,001,2026-01-21_16h26.10.246,NESC3137_EEG_experiment,,2025.1.1,141.96801744858067,2026-01-21 16h26.32.575469 -0400,
148,0,148,up,None,0.33749299999908544,None,,,148,0,148,0,191.50900869999896,,,,,,,,,,,,,,,,,,,,191.50205500000448,191.50900869999896,192.1323102000024,192.11397489999945,1,192.1299841,192.1323102000024,192.1323102000024,192.61924949999957,up,192.6192934999999,192.61931059999915,None,0.33749299999908544,None,,,,,,,,,,,,,003,001,2026-01-21_16h26.10.246,NESC3137_EEG_experiment,,2025.1.1,141.96801744858067,2026-01-21 16h26.32.575469 -0400,
149,0,149,up,None,0.28498100000433624,None,,,149,0,149,0,192.6260495000024,,,,,,,,,,,,,,,,,,,,192.61943069999688,192.6260495000024,193.3288709000044,193.31408350000856,1,193.32704089999606,193.3288709000044,193.3288709000044,193.8162072999985,up,193.81625080000958,193.8162672000035,None,0.28498100000433624,None,,,,,,,,,,,,,003,001,2026-01-21_16h26.10.246,NESC3137_EEG_experiment,,2025.1.1,141.96801744858067,2026-01-21 16h26.32.575469 -0400,
150,0,150,up,None,0.24509660000330769,0.18369370000436902,,,150,0,150,0,193.82417190000706,,,,,,,,,,,,,,,,,,,,193.81638289999682,193.82417190000706,194.65710959999706,194.64292579999892,1,194.65539559999888,194.65710959999706,194.65710959999706,195.14469840000675,up,195.14473949999956,195.1447571000026,None,0.24509660000330769,0.18369370000436902,,,,,,,,,,,,,003,001,2026-01-21_16h26.10.246,NESC3137_EEG_experiment,,2025.1.1,141.96801744858067,2026-01-21 16h26.32.575469 -0400,
151,0,151,up,None,0.2186327999952482,0.17591520000132732,,,151,0,151,0,195.15194290000363,,,,,,,,,,,,,,,,,,,,195.14487840000947,195.15194290000363,196.1312573000032,196.11697750000167,1,196.12941150000552,196.1312573000032,196.1312573000032,196.6183938000031,up,196.6184401000064,196.618458500001,None,0.2186327999952482,0.17591520000132732,,,,,,,,,,,,,003,001,2026-01-21_16h26.10.246,NESC3137_EEG_experiment,,2025.1.1,141.96801744858067,2026-01-21 16h26.32.575469 -0400,
152,0,152,up,None,0.2651343000034103,0.19189729999925476,,,152,0,152,0,196.62524880000274,,,,,,,,,,,,,,,,,,,,196.61859290000575,196.62524880000274,197.14874269999564,197.1323551999958,1,197.1463240000012,197.14874269999564,197.14874269999564,197.63708230000339,up,197.6371385000093,197.63717070000712,None,0.2651343000034103,0.19189729999925476,,,,,,,,,,,,,003,001,2026-01-21_16h26.10.246,NESC3137_EEG_experiment,,2025.1.1,141.96801744858067,2026-01-21 16h26.32.575469 -0400,
153,0,153,down,None,0.3688086000038311,None,,,153,0,153,0,197.6439154999971,,,,,,,,,,,,,,,,,,,,197.63733749999665,197.6439154999971,198.29302320000716,198.27698300000338,2,198.2909656999982,198.29302320000716,198.29302320000716,198.7811539999966,down,198.78119760000845,198.78121400000236,None,0.3688086000038311,None,,,,,,,,,,,,,003,001,2026-01-21_16h26.10.246,NESC3137_EEG_experiment,,2025.1.1,141.96801744858067,2026-01-21 16h26.32.575469 -0400,
154,0,154,up,None,0.35863800000515766,None,,,154,0,154,0,198.78915330000746,,,,,,,,,,,,,,,,,,,,198.78132530000585,198.78915330000746,199.39915749999636,199.38580250000814,1,199.39717730000848,199.39915749999636,199.39915749999636,199.8861859000026,up,199.88622820000455,199.8862448,None,0.35863800000515766,None,,,,,,,,,,,,,003,001,2026-01-21_16h26.10.246,NESC3137_EEG_experiment,,2025.1.1,141.96801744858067,2026-01-21 16h26.32.575469 -0400,
155,0,155,down,None,0.30943689998821355,0.15995060000568628,,,155,0,155,0,199.89309460000368,,,,,,,,,,,,,,,,,,,,199.88637089999975,199.89309460000368,200.664391600003,200.65030809999735,2,200.662462399996,200.664391600003,200.664391600003,201.15158109999902,down,201.15162710000004,201.1516449000046,None,0.30943689998821355,0.15995060000568628,,,,,,,,,,,,,003,001,2026-01-21_16h26.10.246,NESC3137_EEG_experiment,,2025.1.1,141.96801744858067,2026-01-21 16h26.32.575469 -0400,
156,0,156,down,None,0.28639449999900535,0.09603770000103395,,,156,0,156,0,201.15845919999992,,,,,,,,,,,,,,,,,,,,201.1517651000031,201.15845919999992,201.99938079999993,201.98592360000475,2,201.99752970000554,201.99938079999993,201.99938079999993,202.48791090000304,down,202.48800280000432,202.4880400999973,None,0.28639449999900535,0.09603770000103395,,,,,,,,,,,,,003,001,2026-01-21_16h26.10.246,NESC3137_EEG_experiment,,2025.1.1,141.96801744858067,2026-01-21 16h26.32.575469 -0400,
157,0,157,up,None,0.449511300001177,None,,,157,0,157,0,202.4933072999993,,,,,,,,,,,,,,,,,,,,202.48826610000106,202.4933072999993,202.99626780000108,202.9803344999964,1,202.9940626000025,202.99626780000108,202.99626780000108,203.4843436000083,up,203.4843874000071,203.48440519999713,None,0.449511300001177,None,,,,,,,,,,,,,003,001,2026-01-21_16h26.10.246,NESC3137_EEG_experiment,,2025.1.1,141.96801744858067,2026-01-21 16h26.32.575469 -0400,
158,0,158,up,None,0.3748560000094585,None,,,158,0,158,0,203.49163709999993,,,,,,,,,,,,,,,,,,,,203.4845239999995,203.49163709999993,204.31902199999604,204.3042187999963,1,204.316920199999,204.31902199999604,204.31902199999604,204.8063783999969,up,204.8064202999958,204.80643769999733,None,0.3748560000094585,None,,,,,,,,,,,,,003,001,2026-01-21_16h26.10.246,NESC3137_EEG_experiment,,2025.1.1,141.96801744858067,2026-01-21 16h26.32.575469 -0400,
159,0,159,down,None,0.39699880000262056,None,,,159,0,159,0,204.81288579999818,,,,,,,,,,,,,,,,,,,,204.80656280000403,204.81288579999818,205.37687649999862,205.3629465999984,2,205.37504610000178,205.37687649999862,205.37687649999862,205.86492449999787,down,205.8649704999989,205.86498840000422,None,0.39699880000262056,None,,,,,,,,,,,,,003,001,2026-01-21_16h26.10.246,NESC3137_EEG_experiment,,2025.1.1,141.96801744858067,2026-01-21 16h26.32.575469 -0400,
160,0,160,up,None,0.47359370000776835,None,,,160,0,160,0,205.87169100000756,,,,,,,,,,,,,,,,,,,,205.86511270000483,205.87169100000756,206.41341809999722,206.39883950000512,1,206.4112543000083,206.41341809999722,206.41341809999722,206.9001549000095,up,206.90019739999843,206.90021459999844,None,0.47359370000776835,None,,,,,,,,,,,,,003,001,2026-01-21_16h26.10.246,NESC3137_EEG_experiment,,2025.1.1,141.96801744858067,2026-01-21 16h26.32.575469 -0400,
161,0,161,down,None,0.33772729999327566,None,,,161,0,161,0,206.90713580000738,,,,,,,,,,,,,,,,,,,,206.90033580000454,206.90713580000738,207.8441002000036,207.8313971000025,2,207.8422000999999,207.8441002000036,207.8441002000036,208.33127680000325,down,208.3313128000009,208.33132860000478,None,0.33772729999327566,None,208.3377981000085,208.3377981000085,,,,,,,,,,,003,001,2026-01-21_16h26.10.246,NESC3137_EEG_experiment,,2025.1.1,141.96801744858067,2026-01-21 16h26.32.575469 -0400,
162,0,162,up,None,0.3946419000130845,None,,,162,0,162,0,208.3377981000085,,,,,,,,,,,,,,,,,,,,208.33144229999743,208.3377981000085,209.3312459000008,209.31740990000253,1,209.32907550000527,209.3312459000008,209.3312459000008,209.81920600000012,up,209.81926630000817,209.81929890000902,None,0.3946419000130845,None,,,,,,,,,,,,,003,001,2026-01-21_16h26.10.246,NESC3137_EEG_experiment,,2025.1.1,141.96801744858067,2026-01-21 16h26.32.575469 -0400,
163,0,163,up,None,0.4277217000053497,None,,,163,0,163,0,209.8253098999994,,,,,,,,,,,,,,,,,,,,209.81947180000134,209.8253098999994,210.3460686000035,210.3322407000087,1,210.34390190000704,210.3460686000035,210.3460686000035,210.8337068999972,up,210.83377969999856,210.83379750000313,None,0.4277217000053497,None,,,,,,,,,,,,,003,001,2026-01-21_16h26.10.246,NESC3137_EEG_experiment,,2025.1.1,141.96801744858067,2026-01-21 16h26.32.575469 -0400,
164,0,164,down,None,0.4038814999948954,None,,,164,0,164,0,210.84099219999916,,,,,,,,,,,,,,,,,,,,210.83391810000467,210.84099219999916,211.4100150000013,211.39679470000556,2,211.4081928000087,211.4100150000013,211.4100150000013,211.89695829999982,down,211.8970180000033,211.8970502000011,None,0.4038814999948954,None,,,,,,,,,,,,,003,001,2026-01-21_16h26.10.246,NESC3137_EEG_experiment,,2025.1.1,141.96801744858067,2026-01-21 16h26.32.575469 -0400,
165,0,165,down,None,0.3063035000086529,0.15175829999498092,,,165,0,165,0,211.90387690000352,,,,,,,,,,,,,,,,,,,,211.89722650000476,211.90387690000352,212.6197428000014,212.60640309999872,2,212.61780000000726,212.6197428000014,212.6197428000014,213.10686529999657,down,213.10690780000004,213.10692439999548,None,0.3063035000086529,0.15175829999498092,,,,,,,,,,,,,003,001,2026-01-21_16h26.10.246,NESC3137_EEG_experiment,,2025.1.1,141.96801744858067,2026-01-21 16h26.32.575469 -0400,
166,0,166,up,None,0.4638727999990806,None,,,166,0,166,0,213.1137688000017,,,,,,,,,,,,,,,,,,,,213.1070378000004,213.1137688000017,213.67802920000395,213.66422960000637,1,213.67545910000626,213.67802920000395,213.67802920000395,214.16519070000504,up,214.1652355999977,214.16525230000843,None,0.4638727999990806,None,,,,,,,,,,,,,003,001,2026-01-21_16h26.10.246,NESC3137_EEG_experiment,,2025.1.1,141.96801744858067,2026-01-21 16h26.32.575469 -0400,
167,0,167,down,None,0.238519799997448,0.17611670000769664,,,167,0,167,0,214.17280699999537,,,,,,,,,,,,,,,,,,,,214.1653660000011,214.17280699999537,214.83123710000655,214.81798370000615,2,214.82940990000498,214.83123710000655,214.83123710000655,215.31836710000061,down,215.31841380000697,215.31843200000003,None,0.238519799997448,0.17611670000769664,,,,,,,,,,,,,003,001,2026-01-21_16h26.10.246,NESC3137_EEG_experiment,,2025.1.1,141.96801744858067,2026-01-21 16h26.32.575469 -0400,
168,0,168,down,None,0.36904089999734424,None,,,168,0,168,0,215.32516439999745,,,,,,,,,,,,,,,,,,,,215.31856240000343,215.32516439999745,216.23673509999935,216.22252100000333,2,216.234726900002,216.23673509999935,216.23673509999935,216.72376839999924,down,216.72381140000653,216.72382880000805,None,0.36904089999734424,None,,,,,,,,,,,,,003,001,2026-01-21_16h26.10.246,NESC3137_EEG_experiment,,2025.1.1,141.96801744858067,2026-01-21 16h26.32.575469 -0400,
169,0,169,down,None,0.28908850000880193,0.1529442999890307,,,169,0,169,0,216.73146670000278,,,,,,,,,,,,,,,,,,,,216.72394440000062,216.73146670000278,217.41272249999747,217.39751570000954,2,217.40946619999886,217.41272249999747,217.41272249999747,217.90056059999915,down,217.90060890000314,217.90062699999544,None,0.28908850000880193,0.1529442999890307,,,,,,,,,,,,,003,001,2026-01-21_16h26.10.246,NESC3137_EEG_experiment,,2025.1.1,141.96801744858067,2026-01-21 16h26.32.575469 -0400,
170,0,170,down,None,0.34405949999927543,None,,,170,0,170,0,217.90731599999708,,,,,,,,,,,,,,,,,,,,217.90074870000535,217.90731599999708,218.41384140000446,218.39953660000174,2,218.41173750000598,218.41384140000446,218.41384140000446,218.90187370000058,down,218.90193180000642,218.9019488000049,None,0.34405949999927543,None,,,,,,,,,,,,,003,001,2026-01-21_16h26.10.246,NESC3137_EEG_experiment,,2025.1.1,141.96801744858067,2026-01-21 16h26.32.575469 -0400,
171,0,171,up,None,0.31587649999710266,None,,,171,0,171,0,218.90795930000604,,,,,,,,,,,,,,,,,,,,218.90207470000314,218.90795930000604,219.6258772000001,219.6094102000061,1,219.62333370000124,219.6258772000001,219.6258772000001,220.1160089000041,up,220.11607610000647,220.11609429999953,None,0.31587649999710266,None,,,,,,,,,,,,,003,001,2026-01-21_16h26.10.246,NESC3137_EEG_experiment,,2025.1.1,141.96801744858067,2026-01-21 16h26.32.575469 -0400,
172,0,172,down,None,0.4047374000074342,None,,,172,0,172,0,220.12105339999835,,,,,,,,,,,,,,,,,,,,220.11622470000293,220.12105339999835,220.8649992999999,220.8517470000079,2,220.8631516000023,220.8649992999999,220.8649992999999,221.352836200007,down,221.35288620000938,221.35290460000397,None,0.4047374000074342,None,,,,,,,,,,,,,003,001,2026-01-21_16h26.10.246,NESC3137_EEG_experiment,,2025.1.1,141.96801744858067,2026-01-21 16h26.32.575469 -0400,
173,0,173,down,None,0.342454199999338,None,,,173,0,173,0,221.35995399999956,,,,,,,,,,,,,,,,,,,,221.35307820000162,221.35995399999956,221.99128420000488,221.97750039999664,2,221.98928270000033,221.99128420000488,221.99128420000488,222.47906330000842,down,222.47914180000953,222.47916230000556,None,0.342454199999338,None,,,,,,,,,,,,,003,001,2026-01-21_16h26.10.246,NESC3137_EEG_experiment,,2025.1.1,141.96801744858067,2026-01-21 16h26.32.575469 -0400,
174,0,174,down,None,0.3428593999997247,None,,,174,0,174,0,222.48647119999805,,,,,,,,,,,,,,,,,,,,222.47928169999796,222.48647119999805,223.06321180000668,223.0493576000008,2,223.06123110000044,223.06321180000668,223.06321180000668,223.55172970000422,down,223.55185450000863,223.55191740000737,None,0.3428593999997247,None,,,,,,,,,,,,,003,001,2026-01-21_16h26.10.246,NESC3137_EEG_experiment,,2025.1.1,141.96801744858067,2026-01-21 16h26.32.575469 -0400,
175,0,175,down,None,0.2907567999936873,0.1601249000086682,,,175,0,175,0,223.5574396000011,,,,,,,,,,,,,,,,,,,,223.5521257000073,223.5574396000011,224.30703500000527,224.29456449999998,2,224.30530930000532,224.30703500000527,224.30703500000527,224.79473900000448,down,224.7947833000071,224.79480070000864,None,0.2907567999936873,0.1601249000086682,,,,,,,,,,,,,003,001,2026-01-21_16h26.10.246,NESC3137_EEG_experiment,,2025.1.1,141.96801744858067,2026-01-21 16h26.32.575469 -0400,
176,0,176,down,None,0.2845378000056371,0.17604999999457505,,,176,0,176,0,224.800986000002,,,,,,,,,,,,,,,,,,,,224.79493360000197,224.800986000002,225.43328140000813,225.41925730000366,2,225.43142140000418,225.43328140000813,225.43328140000813,225.92059580000932,down,225.92064260000188,225.92066580000392,None,0.2845378000056371,0.17604999999457505,,,,,,,,,,,,,003,001,2026-01-21_16h26.10.246,NESC3137_EEG_experiment,,2025.1.1,141.96801744858067,2026-01-21 16h26.32.575469 -0400,
177,0,177,down,None,0.24349000000802334,0.07262989999435376,,,177,0,177,0,225.92778470000485,,,,,,,,,,,,,,,,,,,,225.9207854999986,225.92778470000485,226.8582882000046,226.8448047999991,1,226.85639410000294,226.8582882000046,226.8582882000046,227.34540740000375,down,227.345467200008,227.34550120000495,None,0.24349000000802334,0.07262989999435376,,,,,,,,,,,,,003,001,2026-01-21_16h26.10.246,NESC3137_EEG_experiment,,2025.1.1,141.96801744858067,2026-01-21 16h26.32.575469 -0400,
178,0,178,up,None,0.426471999991918,None,,,178,0,178,0,227.35337510000682,,,,,,,,,,,,,,,,,,,,227.3456789000047,227.35337510000682,228.0432501000032,228.02589330000046,1,228.04024070000742,228.0432501000032,228.0432501000032,228.53154150000773,up,228.53160230000503,228.5316332000075,None,0.426471999991918,None,,,,,,,,,,,,,003,001,2026-01-21_16h26.10.246,NESC3137_EEG_experiment,,2025.1.1,141.96801744858067,2026-01-21 16h26.32.575469 -0400,
179,0,179,up,None,0.37953489999927115,None,,,179,0,179,0,228.53876370000944,,,,,,,,,,,,,,,,,,,,228.53180540000903,228.53876370000944,229.53818099999626,229.52538500000082,1,229.53591610000876,229.53818099999626,229.53818099999626,230.02506240000366,up,230.02509599999757,230.02511099999538,None,0.37953489999927115,None,230.03176840000378,230.03176840000378,,,,,,,,,,,003,001,2026-01-21_16h26.10.246,NESC3137_EEG_experiment,,2025.1.1,141.96801744858067,2026-01-21 16h26.32.575469 -0400,
180,0,180,None,None,,,,,180,0,180,0,230.03176840000378,,,,,,,,,,,,,,,,,,,,230.0252138000069,230.03176840000378,230.56917560000147,230.55392600000778,2,230.5668241999956,230.56917560000147,230.56917560000147,231.05742610000016,None,231.05747870000778,231.05751050000254,None,,,,,,,,,,,,,,,003,001,2026-01-21_16h26.10.246,NESC3137_EEG_experiment,,2025.1.1,141.96801744858067,2026-01-21 16h26.32.575469 -0400,
181,0,181,up,None,0.42509780000546016,None,,,181,0,181,0,231.06542290000652,,,,,,,,,,,,,,,,,,,,231.057679000005,231.06542290000652,231.9331275000004,231.91849779999757,1,231.93110820000584,231.9331275000004,231.9331275000004,232.42019309999887,up,232.4202368999977,232.42025360000844,None,0.42509780000546016,None,,,,,,,,,,,,,003,001,2026-01-21_16h26.10.246,NESC3137_EEG_experiment,,2025.1.1,141.96801744858067,2026-01-21 16h26.32.575469 -0400,
182,0,182,up,None,0.444919800007483,None,,,182,0,182,0,232.42683229999966,,,,,,,,,,,,,,,,,,,,232.42037560000608,232.42683229999966,233.2893991000019,233.2742966000078,1,233.28731349999725,233.2893991000019,233.2893991000019,233.7765103999991,up,233.7765725000063,233.77660460000334,None,0.444919800007483,None,,,,,,,,,,,,,003,001,2026-01-21_16h26.10.246,NESC3137_EEG_experiment,,2025.1.1,141.96801744858067,2026-01-21 16h26.32.575469 -0400,
183,0,183,up,None,0.39442320000671316,None,,,183,0,183,0,233.78323820000514,,,,,,,,,,,,,,,,,,,,233.77679119999812,233.78323820000514,234.54728500000783,234.533740400002,1,234.54520340000454,234.54728500000783,234.54728500000783,235.03608269999677,up,235.03615620000346,235.0361819999962,None,0.39442320000671316,None,,,,,,,,,,,,,003,001,2026-01-21_16h26.10.246,NESC3137_EEG_experiment,,2025.1.1,141.96801744858067,2026-01-21 16h26.32.575469 -0400,
184,0,184,up,None,0.2918284000043059,None,,,184,0,184,0,235.0414230000024,,,,,,,,,,,,,,,,,,,,235.03635760000907,235.0414230000024,235.825920400006,235.81319800000347,1,235.82405379999545,235.825920400006,235.825920400006,236.31333079999604,up,236.31337430000713,236.31339429999935,None,0.2918284000043059,None,,,,,,,,,,,,,003,001,2026-01-21_16h26.10.246,NESC3137_EEG_experiment,,2025.1.1,141.96801744858067,2026-01-21 16h26.32.575469 -0400,
185,0,185,up,None,0.28181909999693744,None,,,185,0,185,0,236.3208794999955,,,,,,,,,,,,,,,,,,,,236.31354460000875,236.3208794999955,237.0358736000053,237.0213924999989,1,237.03364090000105,237.0358736000053,237.0358736000053,237.52398090000497,up,237.52402500000608,237.52404230000684,None,0.28181909999693744,None,,,,,,,,,,,,,003,001,2026-01-21_16h26.10.246,NESC3137_EEG_experiment,,2025.1.1,141.96801744858067,2026-01-21 16h26.32.575469 -0400,
186,0,186,down,None,0.4028889000037452,None,,,186,0,186,0,237.53006299999834,,,,,,,,,,,,,,,,,,,,237.52415850000398,237.53006299999834,238.14769910000905,238.13449389999732,2,238.1458408000035,238.14769910000905,238.14769910000905,238.63477140000032,down,238.63481460000912,238.63483150000684,None,0.4028889000037452,None,,,,,,,,,,,,,003,001,2026-01-21_16h26.10.246,NESC3137_EEG_experiment,,2025.1.1,141.96801744858067,2026-01-21 16h26.32.575469 -0400,
187,0,187,up,None,0.36497090000193566,None,,,187,0,187,0,238.6424643000064,,,,,,,,,,,,,,,,,,,,238.63494540000102,238.6424643000064,239.34472380000807,239.3308199000021,1,239.34235069999704,239.34472380000807,239.34472380000807,239.83174960000906,up,239.83179520000704,239.83181590000459,None,0.36497090000193566,None,,,,,,,,,,,,,003,001,2026-01-21_16h26.10.246,NESC3137_EEG_experiment,,2025.1.1,141.96801744858067,2026-01-21 16h26.32.575469 -0400,
188,0,188,up,None,0.4753934000036679,None,,,188,0,188,0,239.83834630000638,,,,,,,,,,,,,,,,,,,,239.83193729999766,239.83834630000638,240.50630520000414,240.49190049999743,1,240.50429179999628,240.50630520000414,240.50630520000414,240.99310490000062,up,240.9931682000024,240.99320060000173,None,0.4753934000036679,None,,,,,,,,,,,,,003,001,2026-01-21_16h26.10.246,NESC3137_EEG_experiment,,2025.1.1,141.96801744858067,2026-01-21 16h26.32.575469 -0400,
189,0,189,None,None,,,,,189,0,189,0,240.99993350000295,,,,,,,,,,,,,,,,,,,,240.99338149999676,240.99993350000295,241.94547430000966,241.93074300000444,1,241.94375310000032,241.94547430000966,241.94547430000966,242.43388559999585,None,242.43392820000008,242.43394580000313,None,,,,,,,,,,,,,,,003,001,2026-01-21_16h26.10.246,NESC3137_EEG_experiment,,2025.1.1,141.96801744858067,2026-01-21 16h26.32.575469 -0400,
190,0,190,down,None,0.32078829999954905,None,,,190,0,190,0,242.43940790000488,,,,,,,,,,,,,,,,,,,,242.43406670000695,242.43940790000488,243.0853891000006,243.07166440000583,2,243.08317420000094,243.0853891000006,243.0853891000006,243.57238480000524,down,243.572428200001,243.57244610000635,None,0.32078829999954905,None,,,,,,,,,,,,,003,001,2026-01-21_16h26.10.246,NESC3137_EEG_experiment,,2025.1.1,141.96801744858067,2026-01-21 16h26.32.575469 -0400,
191,0,191,up,None,0.34376970000448637,None,,,191,0,191,0,243.5800123000081,,,,,,,,,,,,,,,,,,,,243.5725611000089,243.5800123000081,244.56591380000464,244.552852599998,1,244.56418139999732,244.56591380000464,244.56591380000464,245.0532719000039,up,245.05333290000272,245.05336390000593,None,0.34376970000448637,None,,,,,,,,,,,,,003,001,2026-01-21_16h26.10.246,NESC3137_EEG_experiment,,2025.1.1,141.96801744858067,2026-01-21 16h26.32.575469 -0400,
192,0,192,down,None,0.37300259999756236,None,,,192,0,192,0,245.06001490000926,,,,,,,,,,,,,,,,,,,,245.0535622000025,245.06001490000926,245.60870379999687,245.59525030000077,1,245.6068515000079,245.60870379999687,245.60870379999687,246.0958982000011,down,246.09594120000838,246.09595850000915,None,0.37300259999756236,None,,,,,,,,,,,,,003,001,2026-01-21_16h26.10.246,NESC3137_EEG_experiment,,2025.1.1,141.96801744858067,2026-01-21 16h26.32.575469 -0400,
193,0,193,None,None,,,,,193,0,193,0,246.10357829999703,,,,,,,,,,,,,,,,,,,,246.09607460000552,246.10357829999703,246.63823019999836,246.62378560000798,2,246.6360563000053,246.63823019999836,246.63823019999836,247.12528799999563,None,247.1253402000002,247.12537029999658,None,,,,,,,,,,,,,,,003,001,2026-01-21_16h26.10.246,NESC3137_EEG_experiment,,2025.1.1,141.96801744858067,2026-01-21 16h26.32.575469 -0400,
194,0,194,up,None,0.3879918999882648,None,,,194,0,194,0,247.13215150000178,,,,,,,,,,,,,,,,,,,,247.12554740000633,247.13215150000178,248.00173200000427,247.9875417000003,1,247.99859640000795,248.00173200000427,248.00173200000427,248.49036490000435,up,248.4904194999981,248.49044510000385,None,0.3879918999882648,None,,,,,,,,,,,,,003,001,2026-01-21_16h26.10.246,NESC3137_EEG_experiment,,2025.1.1,141.96801744858067,2026-01-21 16h26.32.575469 -0400,
195,0,195,up,None,0.3098238999955356,None,,,195,0,195,0,248.49528540000028,,,,,,,,,,,,,,,,,,,,248.49057249999896,248.49528540000028,249.1839139000076,249.17008270000224,1,249.18184640000982,249.1839139000076,249.1839139000076,249.67118440000922,up,249.67122790000576,249.67124599999806,None,0.3098238999955356,None,,,,,,,,,,,,,003,001,2026-01-21_16h26.10.246,NESC3137_EEG_experiment,,2025.1.1,141.96801744858067,2026-01-21 16h26.32.575469 -0400,
196,0,196,down,None,0.3104112000000896,None,,,196,0,196,0,249.67881270000362,,,,,,,,,,,,,,,,,,,,249.6713732000062,249.67881270000362,250.3592837000033,250.34479970000393,2,250.35681890000706,250.3592837000033,250.3592837000033,250.84740880000754,down,250.8474556000001,250.84747350000544,None,0.3104112000000896,None,,,,,,,,,,,,,003,001,2026-01-21_16h26.10.246,NESC3137_EEG_experiment,,2025.1.1,141.96801744858067,2026-01-21 16h26.32.575469 -0400,
197,0,197,up,None,0.4063369999930728,None,,,197,0,197,0,250.85357130000193,,,,,,,,,,,,,,,,,,,,250.84758879999572,250.85357130000193,251.42363790000672,251.4089454000059,1,251.421545899997,251.42363790000672,251.42363790000672,251.9123627000081,up,251.91241220000666,251.91242940000666,None,0.4063369999930728,None,,,,,,,,,,,,,003,001,2026-01-21_16h26.10.246,NESC3137_EEG_experiment,,2025.1.1,141.96801744858067,2026-01-21 16h26.32.575469 -0400,
198,0,198,down,None,0.33999009999388363,None,,,198,0,198,0,251.91750730000786,,,,,,,,,,,,,,,,,,,,251.91258340000059,251.91750730000786,252.68178810000245,252.6685642000084,2,252.6800504999992,252.68178810000245,252.68178810000245,253.16926239999884,down,253.16930670000147,253.16932400000223,None,0.33999009999388363,None,,,,,,,,,,,,,003,001,2026-01-21_16h26.10.246,NESC3137_EEG_experiment,,2025.1.1,141.96801744858067,2026-01-21 16h26.32.575469 -0400,
199,0,199,down,None,0.35207680000166874,None,,,199,0,199,0,253.17582020000555,,,,,,,,,,,,,,,,,,,,253.16943779999565,253.17582020000555,253.93362769999658,253.92039820000355,2,253.93175479999627,253.93362769999658,253.93362769999658,254.42062109999824,down,254.42066790000536,254.42068680000375,None,0.35207680000166874,None,,,,,,,,,,,,,003,001,2026-01-21_16h26.10.246,NESC3137_EEG_experiment,,2025.1.1,141.96801744858067,2026-01-21 16h26.32.575469 -0400,
200,0,200,down,space,0.3293123000039486,0.13612759999523405,27.458113100001356,None,200,0,200,0,254.42759999999544,,,,,,,,,,,,,,,,,,,,254.4208049000008,254.42759999999544,255.14834569999948,255.12994729999627,2,255.14630079999915,255.14834569999948,255.14834569999948,255.63047990000632,down,255.6305272000027,313.08170310000423,space,0.3293123000039486,0.13612759999523405,,,255.6360022000008,285.6194664000068,285.6194664000068,285.62584710000374,27.458113100001356,None,,,,,003,001,2026-01-21_16h26.10.246,NESC3137_EEG_experiment,,2025.1.1,141.96801744858067,2026-01-21 16h26.32.575469 -0400,
201,0,201,down,None,0.3801629000081448,None,,,201,0,201,0,313.08725219999906,,,,,,,,,,,,,,,,,,,,313.08183320000535,313.08725219999906,313.681390800004,313.6640260999993,2,313.6794855000044,313.681390800004,313.681390800004,314.16413250000915,down,314.16417360000196,314.1641937000095,None,0.3801629000081448,None,314.1700079000002,314.1700079000002,,,,,,,,,,,003,001,2026-01-21_16h26.10.246,NESC3137_EEG_experiment,,2025.1.1,141.96801744858067,2026-01-21 16h26.32.575469 -0400,
202,0,202,down,None,0.27741569999489,0.15175429999362677,,,202,0,202,0,314.1700079000002,,,,,,,,,,,,,,,,,,,,314.1643214000069,314.1700079000002,314.73641399999906,314.7186275999993,2,314.7345958000078,314.73641399999906,314.73641399999906,315.2248080999998,down,315.2248532000085,315.2248713000008,None,0.27741569999489,0.15175429999362677,,,,,,,,,,,,,003,001,2026-01-21_16h26.10.246,NESC3137_EEG_experiment,,2025.1.1,141.96801744858067,2026-01-21 16h26.32.575469 -0400,
203,0,203,down,None,0.318570199990063,0.13575720001244918,,,203,0,203,0,315.23150000000896,,,,,,,,,,,,,,,,,,,,315.22498880000785,315.23150000000896,315.99131620000117,315.96890059999714,2,315.9890763000003,315.99131620000117,315.99131620000117,316.46989490000124,down,316.4699552000093,316.4699860999972,None,0.318570199990063,0.13575720001244918,,,,,,,,,,,,,003,001,2026-01-21_16h26.10.246,NESC3137_EEG_experiment,,2025.1.1,141.96801744858067,2026-01-21 16h26.32.575469 -0400,
204,0,204,up,None,0.379185999991023,0.055924700005562045,,,204,0,204,0,316.4768019000039,,,,,,,,,,,,,,,,,,,,316.4701608000032,316.4768019000039,317.01848120000795,317.0047779000015,2,317.01640550000593,317.01848120000795,317.01848120000795,317.5053306000045,up,317.5053737999988,317.5053909999988,None,0.379185999991023,0.055924700005562045,,,,,,,,,,,,,003,001,2026-01-21_16h26.10.246,NESC3137_EEG_experiment,,2025.1.1,141.96801744858067,2026-01-21 16h26.32.575469 -0400,
205,0,205,down,None,0.32643309999548364,0.1519010000047274,,,205,0,205,0,317.51302549999673,,,,,,,,,,,,,,,,,,,,317.50551840000844,317.51302549999673,318.36743790000037,318.3528284000058,2,318.3653931000008,318.36743790000037,318.36743790000037,318.8559097999969,down,318.855968200005,318.8559863999981,None,0.32643309999548364,0.1519010000047274,,,,,,,,,,,,,003,001,2026-01-21_16h26.10.246,NESC3137_EEG_experiment,,2025.1.1,141.96801744858067,2026-01-21 16h26.32.575469 -0400,
206,0,206,up,None,0.37046879999979865,0.0971958000009181,,,206,0,206,0,318.861224399996,,,,,,,,,,,,,,,,,,,,318.85611350000545,318.861224399996,319.66706580000755,319.65388900000835,1,319.66507529999944,319.66706580000755,319.66706580000755,320.15464860000066,up,320.1547094999987,320.15474050000194,None,0.37046879999979865,0.0971958000009181,,,,,,,,,,,,,003,001,2026-01-21_16h26.10.246,NESC3137_EEG_experiment,,2025.1.1,141.96801744858067,2026-01-21 16h26.32.575469 -0400,
207,0,207,up,None,0.2923776999959955,0.1673265999997966,,,207,0,207,0,320.16096259999904,,,,,,,,,,,,,,,,,,,,320.15491300000576,320.16096259999904,320.72994400000607,320.7166927000071,1,320.72810259999824,320.72994400000607,320.72994400000607,321.2182074000011,up,321.2182981000078,321.2183221000014,None,0.2923776999959955,0.1673265999997966,,,,,,,,,,,,,003,001,2026-01-21_16h26.10.246,NESC3137_EEG_experiment,,2025.1.1,141.96801744858067,2026-01-21 16h26.32.575469 -0400,
208,0,208,down,None,0.256664800006547,0.16799929999979213,,,208,0,208,0,321.22387719999824,,,,,,,,,,,,,,,,,,,,321.2184532999963,321.22387719999824,321.8689546000096,321.8560906000057,2,321.86701830000675,321.8689546000096,321.8689546000096,322.35666240000864,down,322.3567073000013,322.35672599999816,None,0.256664800006547,0.16799929999979213,,,,,,,,,,,,,003,001,2026-01-21_16h26.10.246,NESC3137_EEG_experiment,,2025.1.1,141.96801744858067,2026-01-21 16h26.32.575469 -0400,
209,0,209,down,None,0.27150989999063313,0.1277057999977842,,,209,0,209,0,322.3646216000052,,,,,,,,,,,,,,,,,,,,322.356844599999,322.3646216000052,323.1343115000054,323.120127400005,2,323.13189450000937,323.1343115000054,323.1343115000054,323.622500700003,down,323.6226958000043,323.6227232999954,None,0.27150989999063313,0.1277057999977842,,,,,,,,,,,,,003,001,2026-01-21_16h26.10.246,NESC3137_EEG_experiment,,2025.1.1,141.96801744858067,2026-01-21 16h26.32.575469 -0400,
210,0,210,up,None,0.4292259999929229,None,,,210,0,210,0,323.6279615000094,,,,,,,,,,,,,,,,,,,,323.6229555000027,323.6279615000094,324.552234200004,324.53789069999766,1,324.5502053000091,324.552234200004,324.552234200004,325.0408730000054,up,325.04092420000234,325.0409418000054,None,0.4292259999929229,None,,,,,,,,,,,,,003,001,2026-01-21_16h26.10.246,NESC3137_EEG_experiment,,2025.1.1,141.96801744858067,2026-01-21 16h26.32.575469 -0400,
211,0,211,down,None,0.3377846000075806,None,,,211,0,211,0,325.0461196999968,,,,,,,,,,,,,,,,,,,,325.04105549999804,325.0461196999968,325.74773620000633,325.7336684000038,2,325.74568100000033,325.74773620000633,325.74773620000633,326.23491120000836,down,326.2349555999972,326.2349730999995,None,0.3377846000075806,None,,,,,,,,,,,,,003,001,2026-01-21_16h26.10.246,NESC3137_EEG_experiment,,2025.1.1,141.96801744858067,2026-01-21 16h26.32.575469 -0400,
212,0,212,down,None,0.27130020000913646,0.1675316000037128,,,212,0,212,0,326.2414945000055,,,,,,,,,,,,,,,,,,,,326.23508919999585,326.2414945000055,326.7987132999988,326.7845482999983,2,326.79690040000423,326.7987132999988,326.7987132999988,327.28615960000025,down,327.28622039999755,327.28625119999924,None,0.27130020000913646,0.1675316000037128,,,,,,,,,,,,,003,001,2026-01-21_16h26.10.246,NESC3137_EEG_experiment,,2025.1.1,141.96801744858067,2026-01-21 16h26.32.575469 -0400,
213,0,213,down,None,0.36856479999551084,None,,,213,0,213,0,327.2926899000013,,,,,,,,,,,,,,,,,,,,327.28642070000933,327.2926899000013,328.02964530000463,328.0158392000012,2,328.02756860000954,328.02964530000463,328.02964530000463,328.51666249999835,down,328.5167233999964,328.516755500008,None,0.36856479999551084,None,,,,,,,,,,,,,003,001,2026-01-21_16h26.10.246,NESC3137_EEG_experiment,,2025.1.1,141.96801744858067,2026-01-21 16h26.32.575469 -0400,
214,0,214,up,None,0.38643140000931453,None,,,214,0,214,0,328.5247253999987,,,,,,,,,,,,,,,,,,,,328.516933100007,328.5247253999987,329.3793158000044,329.36526340000273,1,329.37652649999654,329.3793158000044,329.3793158000044,329.8669401000079,up,329.8670092999964,329.86702750000404,None,0.38643140000931453,None,,,,,,,,,,,,,003,001,2026-01-21_16h26.10.246,NESC3137_EEG_experiment,,2025.1.1,141.96801744858067,2026-01-21 16h26.32.575469 -0400,
215,0,215,up,None,0.2969500000035623,None,,,215,0,215,0,329.872675000006,,,,,,,,,,,,,,,,,,,,329.8671480000048,329.872675000006,330.7085808999982,330.6936289000005,1,330.70675640000263,330.7085808999982,330.7085808999982,331.19706920000317,up,331.1971132000035,331.1971304000035,None,0.2969500000035623,None,,,,,,,,,,,,,003,001,2026-01-21_16h26.10.246,NESC3137_EEG_experiment,,2025.1.1,141.96801744858067,2026-01-21 16h26.32.575469 -0400,
216,0,216,down,None,0.3262484000006225,None,,,216,0,216,0,331.2048635999963,,,,,,,,,,,,,,,,,,,,331.1972475000075,331.2048635999963,332.0634272000025,332.0508429000038,2,332.06131740000274,332.0634272000025,332.0634272000025,332.55082360000233,down,332.55087469999853,332.55090400000336,None,0.3262484000006225,None,332.5589833999984,332.5589833999984,,,,,,,,,,,003,001,2026-01-21_16h26.10.246,NESC3137_EEG_experiment,,2025.1.1,141.96801744858067,2026-01-21 16h26.32.575469 -0400,
