thisN,thisTrialN,thisRepN,key_resp_3.keys,key_resp_4.keys,key_resp_3.rt,key_resp_3.duration,key_resp_4.rt,key_resp_4.duration,trials.thisRepN,trials.thisTrialN,trials.thisN,trials.thisIndex,thisRow.t,notes,lsl_stream.started,lsl_stream.stopped,setup.started,setup.stopped,welcome.started,welcomeimg.started,key_resp.started,welcome.stopped,key_resp.keys,key_resp.rt,key_resp.duration,instruction.started,instructionimg.started,key_resp_2.started,instruction.stopped,key_resp_2.keys,key_resp_2.rt,key_resp_2.duration,fixation.started,cross.started,cross.stopped,fixation.stopped,trigger,face.started,faceStim.started,key_resp_3.started,faceStim.stopped,key_resp_3.stopped,face.stopped,trials.key_resp_3.keys,break_2.started,break_2.stopped,trials.key_resp_4.keys,trials.key_resp_3.rt,trials.key_resp_3.duration,breakimg.started,breakimg.stopped,break2img.started,key_resp_4.started,trials.key_resp_4.rt,trials.key_resp_4.duration,end.started,finish.started,end.stopped,participant,session,date,expName,expVersion,psychopyVersion,frameRate,expStart,
,,,,,,,,,,,,,,,0.009916299999531475,0.009998399998949026,,,,,,,,,,,,,,,,,,,,,,,,,,,,,,,,,,,,,,,,,,,sub-008,001,2026-01-28_17h17.09.558,NESC3137_EEG_experiment,,2025.1.1,60.15138901627077,2026-01-28 17h17.26.597412 -0400,
,,,,,,,,,,,,,,,,,0.01002639999933308,0.010062199999083532,,,,,,,,,,,,,,,,,,,,,,,,,,,,,,,,,,,,,,,,,sub-008,001,2026-01-28_17h17.09.558,NESC3137_EEG_experiment,,2025.1.1,60.15138901627077,2026-01-28 17h17.26.597412 -0400,
,,,,,,,,,,,,,,,,,,,0.010152400000151829,0.02527410000038799,0.02527410000038799,5.61289989999932,space,5.567499400000088,None,,,,,,,,,,,,,,,,,,,,,,,,,,,,,,,,,,sub-008,001,2026-01-28_17h17.09.558,NESC3137_EEG_experiment,,2025.1.1,60.15138901627077,2026-01-28 17h17.26.597412 -0400,
,,,,,,,,,,,,,,,,,,,,,,,,,,5.612989299999754,5.6261768999993365,5.6261768999993365,9.692329499999687,space,4.054205500000535,None,,,,,,,,,,,,,,,,,,,,,,,,,,,sub-008,001,2026-01-28_17h17.09.558,NESC3137_EEG_experiment,,2025.1.1,60.15138901627077,2026-01-28 17h17.26.597412 -0400,
0,0,0,None,None,,,,,0,0,0,0,9.70904630000041,,,,,,,,,,,,,,,,,,,,9.69390889999886,9.70904630000041,10.641788400000223,10.625639500000034,1,10.62908520000019,10.641788400000223,10.641788400000223,11.142440499999793,11.142440499999793,11.125584899999012,None,11.12563769999906,11.12567659999877,None,,,,,,,,,,,,sub-008,001,2026-01-28_17h17.09.558,NESC3137_EEG_experiment,,2025.1.1,60.15138901627077,2026-01-28 17h17.26.597412 -0400,
1,0,1,up,None,0.3706891000001633,None,,,1,0,1,0,11.142440499999793,,,,,,,,,,,,,,,,,,,,11.125861099999383,11.142440499999793,11.725836399999025,11.708964800000103,1,11.711745200000223,11.725836399999025,11.725836399999025,,,12.209112999998979,up,12.209186099998988,12.209223699999711,None,0.3706891000001633,None,,,,,,,,,,sub-008,001,2026-01-28_17h17.09.558,NESC3137_EEG_experiment,,2025.1.1,60.15138901627077,2026-01-28 17h17.26.597412 -0400,
2,0,2,None,None,,,,,2,0,2,0,12.225500599999577,,,,,,,,,,,,,,,,,,,,12.209445899999992,12.225500599999577,13.19200710000041,13.175291300000026,2,13.177647200000138,13.19200710000041,13.19200710000041,,,13.676202700000431,None,13.676266799999212,13.676294400000188,None,,,,,,,,,,,,sub-008,001,2026-01-28_17h17.09.558,NESC3137_EEG_experiment,,2025.1.1,60.15138901627077,2026-01-28 17h17.26.597412 -0400,
3,0,3,up,None,0.37941310000132944,None,,,3,0,3,0,13.69253690000005,,,,,,,,,,,,,,,,,,,,13.676500499999747,13.69253690000005,14.309052799999336,14.291868700000123,1,14.294420099999115,14.309052799999336,14.309052799999336,,,14.792733999998745,up,14.79278929999964,14.792810999999347,None,0.37941310000132944,None,,,,,,,,,,sub-008,001,2026-01-28_17h17.09.558,NESC3137_EEG_experiment,,2025.1.1,60.15138901627077,2026-01-28 17h17.26.597412 -0400,
4,0,4,up,None,0.33721179999884043,None,,,4,0,4,0,14.809091699999044,,,,,,,,,,,,,,,,,,,,14.79295970000021,14.809091699999044,15.375647999999273,15.35877419999997,1,15.360915899998872,15.375647999999273,15.375647999999273,,,15.859259199998633,up,15.859311799998977,15.859332199999699,None,0.33721179999884043,None,,,,,,,,,,sub-008,001,2026-01-28_17h17.09.558,NESC3137_EEG_experiment,,2025.1.1,60.15138901627077,2026-01-28 17h17.26.597412 -0400,
5,0,5,down,None,0.4165893999997934,None,,,5,0,5,0,15.875746800000343,,,,,,,,,,,,,,,,,,,,15.859473200000139,15.875746800000343,16.7759145,16.759120799999437,2,16.761613099999522,16.7759145,16.7759145,17.275022499999977,17.275022499999977,17.258840399999826,down,17.258902300000045,17.258930599999076,None,0.4165893999997934,None,,,,,,,,,,sub-008,001,2026-01-28_17h17.09.558,NESC3137_EEG_experiment,,2025.1.1,60.15138901627077,2026-01-28 17h17.26.597412 -0400,
6,0,6,up,None,0.40056040000126814,None,,,6,0,6,0,17.275022499999977,,,,,,,,,,,,,,,,,,,,17.25910659999863,17.275022499999977,17.97597969999879,17.958897499998784,1,17.96095679999962,17.97597969999879,17.97597969999879,,,18.459374599999137,up,18.459440299999187,18.45947460000025,None,0.40056040000126814,None,,,,,,,,,,sub-008,001,2026-01-28_17h17.09.558,NESC3137_EEG_experiment,,2025.1.1,60.15138901627077,2026-01-28 17h17.26.597412 -0400,
7,0,7,down,None,0.37607329999991634,None,,,7,0,7,0,18.4755882999998,,,,,,,,,,,,,,,,,,,,18.459676399999807,18.4755882999998,19.19240019999961,19.17582819999916,2,19.17793359999996,19.19240019999961,19.19240019999961,,,19.676054499999736,down,19.67614179999873,19.67617539999992,None,0.37607329999991634,None,,,,,,,,,,sub-008,001,2026-01-28_17h17.09.558,NESC3137_EEG_experiment,,2025.1.1,60.15138901627077,2026-01-28 17h17.26.597412 -0400,
8,0,8,up,None,0.42327040000054694,None,,,8,0,8,0,19.69173090000004,,,,,,,,,,,,,,,,,,,,19.67642539999906,19.69173090000004,20.62520559999939,20.608558699999776,1,20.610640599999897,20.62520559999939,20.62520559999939,,,21.109234699999433,up,21.109319299999697,21.109348099998897,None,0.42327040000054694,None,,,,,,,,,,sub-008,001,2026-01-28_17h17.09.558,NESC3137_EEG_experiment,,2025.1.1,60.15138901627077,2026-01-28 17h17.26.597412 -0400,
9,0,9,up,None,0.36685209999996005,None,,,9,0,9,0,21.12541699999929,,,,,,,,,,,,,,,,,,,,21.109508699999424,21.12541699999929,22.025622699999076,22.009540899998683,1,22.011658699999316,22.025622699999076,22.025622699999076,22.52559669999937,22.52559669999937,22.508647900000142,up,22.508704599998964,22.50873429999956,None,0.36685209999996005,None,,,,,,,,,,sub-008,001,2026-01-28_17h17.09.558,NESC3137_EEG_experiment,,2025.1.1,60.15138901627077,2026-01-28 17h17.26.597412 -0400,
10,0,10,up,None,0.3646570000000793,None,,,10,0,10,0,22.52559669999937,,,,,,,,,,,,,,,,,,,,22.508912399998735,22.52559669999937,23.475830499999574,23.45905539999876,1,23.460936299999958,23.475830499999574,23.475830499999574,23.975501999999324,23.975501999999324,23.958666299999095,up,23.95872159999999,23.958749800000078,None,0.3646570000000793,None,,,,,,,,,,sub-008,001,2026-01-28_17h17.09.558,NESC3137_EEG_experiment,,2025.1.1,60.15138901627077,2026-01-28 17h17.26.597412 -0400,
11,0,11,down,None,0.40941430000020773,None,,,11,0,11,0,23.975501999999324,,,,,,,,,,,,,,,,,,,,23.958964299999934,23.975501999999324,24.759013400000185,24.74186229999941,2,24.74395480000021,24.759013400000185,24.759013400000185,,,25.242447399999946,down,25.242518299999574,25.242564099999072,None,0.40941430000020773,None,,,,,,,,,,sub-008,001,2026-01-28_17h17.09.558,NESC3137_EEG_experiment,,2025.1.1,60.15138901627077,2026-01-28 17h17.26.597412 -0400,
12,0,12,down,None,0.34397419999913836,None,,,12,0,12,0,25.258731399999306,,,,,,,,,,,,,,,,,,,,25.242761299999984,25.258731399999306,25.792620099999112,25.77540239999871,2,25.77791839999918,25.792620099999112,25.792620099999112,,,26.27576930000032,down,26.27583229999982,26.27585309999995,None,0.34397419999913836,None,,,,,,,,,,sub-008,001,2026-01-28_17h17.09.558,NESC3137_EEG_experiment,,2025.1.1,60.15138901627077,2026-01-28 17h17.26.597412 -0400,
13,0,13,down,None,0.34559059999992314,None,,,13,0,13,0,26.292424299999766,,,,,,,,,,,,,,,,,,,,26.27605279999989,26.292424299999766,26.958857499999795,26.94215609999992,2,26.944403299999976,26.958857499999795,26.958857499999795,,,27.44240340000033,down,27.442468699999154,27.442511600000216,None,0.34559059999992314,None,,,,,,,,,,sub-008,001,2026-01-28_17h17.09.558,NESC3137_EEG_experiment,,2025.1.1,60.15138901627077,2026-01-28 17h17.26.597412 -0400,
14,0,14,None,None,,,,,14,0,14,0,27.458990999999514,,,,,,,,,,,,,,,,,,,,27.442695800000365,27.458990999999514,28.042204600000332,28.02509680000003,1,28.027238799999395,28.042204600000332,28.042204600000332,,,28.525797199999943,None,28.52586009999868,28.525894499998685,None,,,,,,,,,,,,sub-008,001,2026-01-28_17h17.09.558,NESC3137_EEG_experiment,,2025.1.1,60.15138901627077,2026-01-28 17h17.26.597412 -0400,
15,0,15,down,None,0.40893879999930505,None,,,15,0,15,0,28.54208859999926,,,,,,,,,,,,,,,,,,,,28.526097500000105,28.54208859999926,29.175543699999253,29.15866300000016,2,29.160677799998666,29.175543699999253,29.175543699999253,29.67553559999942,29.67553559999942,29.658569100000022,down,29.65862819999893,29.658658999998806,None,0.40893879999930505,None,,,,,,,,,,sub-008,001,2026-01-28_17h17.09.558,NESC3137_EEG_experiment,,2025.1.1,60.15138901627077,2026-01-28 17h17.26.597412 -0400,
16,0,16,down,None,0.36251160000028904,None,,,16,0,16,0,29.67553559999942,,,,,,,,,,,,,,,,,,,,29.658877500000017,29.67553559999942,30.558255799998733,30.542201599999316,2,30.54428530000041,30.558255799998733,30.558255799998733,,,31.042699800000264,down,31.042749599999297,31.042774100000315,None,0.36251160000028904,None,,,,,,,,,,sub-008,001,2026-01-28_17h17.09.558,NESC3137_EEG_experiment,,2025.1.1,60.15138901627077,2026-01-28 17h17.26.597412 -0400,
17,0,17,up,None,0.4124547999999777,None,,,17,0,17,0,31.058240599999408,,,,,,,,,,,,,,,,,,,,31.042938499998854,31.058240599999408,31.692176599999584,31.675331399999777,1,31.67769049999879,31.692176599999584,31.692176599999584,,,32.17592739999964,up,32.17597949999981,32.176000999999815,None,0.4124547999999777,None,,,,,,,,,,sub-008,001,2026-01-28_17h17.09.558,NESC3137_EEG_experiment,,2025.1.1,60.15138901627077,2026-01-28 17h17.26.597412 -0400,
18,0,18,down,None,0.4329471000000922,None,,,18,0,18,0,32.19230199999947,,,,,,,,,,,,,,,,,,,,32.176141500000085,32.19230199999947,32.97559849999925,32.959171000000424,2,32.961630499999956,32.97559849999925,32.97559849999925,33.47577149999961,33.47577149999961,33.45915799999966,down,33.45921189999899,33.459267099999124,None,0.4329471000000922,None,,,,,,,,,,sub-008,001,2026-01-28_17h17.09.558,NESC3137_EEG_experiment,,2025.1.1,60.15138901627077,2026-01-28 17h17.26.597412 -0400,
19,0,19,up,None,0.40751880000061647,None,,,19,0,19,0,33.47577149999961,,,,,,,,,,,,,,,,,,,,33.459460500000205,33.47577149999961,34.22501679999914,34.20891510000001,1,34.210961799999495,34.22501679999914,34.22501679999914,,,34.70936640000036,up,34.70944489999965,34.70949180000025,None,0.40751880000061647,None,,,,,,,,,,sub-008,001,2026-01-28_17h17.09.558,NESC3137_EEG_experiment,,2025.1.1,60.15138901627077,2026-01-28 17h17.26.597412 -0400,
20,0,20,down,None,0.4341911000010441,None,,,20,0,20,0,34.72550909999882,,,,,,,,,,,,,,,,,,,,34.70974179999939,34.72550909999882,35.542263499999535,35.52589869999974,1,35.52830999999969,35.542263499999535,35.542263499999535,36.04203609999968,36.04203609999968,36.025405899999896,down,36.02546110000003,36.025489199999356,None,0.4341911000010441,None,,,,,,,,,,sub-008,001,2026-01-28_17h17.09.558,NESC3137_EEG_experiment,,2025.1.1,60.15138901627077,2026-01-28 17h17.26.597412 -0400,
21,0,21,None,None,,,,,21,0,21,0,36.04203609999968,,,,,,,,,,,,,,,,,,,,36.02566130000014,36.04203609999968,36.57570730000043,36.559163899999476,1,36.56136630000037,36.57570730000043,36.57570730000043,37.07498419999865,37.07498419999865,37.05897989999903,None,37.05902040000001,37.059057000000394,None,,,,,,,,,,,,sub-008,001,2026-01-28_17h17.09.558,NESC3137_EEG_experiment,,2025.1.1,60.15138901627077,2026-01-28 17h17.26.597412 -0400,
22,0,22,up,None,0.40295530000003055,None,,,22,0,22,0,37.07498419999865,,,,,,,,,,,,,,,,,,,,37.05917109999973,37.07498419999865,37.725419299998975,37.708530099998825,1,37.71057759999894,37.725419299998975,37.725419299998975,38.22584730000017,38.22584730000017,38.20871409999927,up,38.20876489999864,38.20878309999898,None,0.40295530000003055,None,,,,,,,,,,sub-008,001,2026-01-28_17h17.09.558,NESC3137_EEG_experiment,,2025.1.1,60.15138901627077,2026-01-28 17h17.26.597412 -0400,
23,0,23,down,None,0.42728880000140634,None,,,23,0,23,0,38.22584730000017,,,,,,,,,,,,,,,,,,,,38.208930699998746,38.22584730000017,39.12511710000035,39.10924419999901,2,39.112516699999105,39.12511710000035,39.12511710000035,39.625539700000445,39.625539700000445,39.60940859999937,down,39.609473000000435,39.60950539999976,None,0.42728880000140634,None,,,,,,,,,,sub-008,001,2026-01-28_17h17.09.558,NESC3137_EEG_experiment,,2025.1.1,60.15138901627077,2026-01-28 17h17.26.597412 -0400,
24,0,24,None,None,,,,,24,0,24,0,39.625539700000445,,,,,,,,,,,,,,,,,,,,39.609696199999235,39.625539700000445,40.30831219999891,40.29265529999975,1,40.29616239999996,40.30831219999891,40.30831219999891,40.80873189999875,40.80873189999875,40.79187719999936,None,40.7919294000003,40.79195859999891,None,,,,,,,,,,,,sub-008,001,2026-01-28_17h17.09.558,NESC3137_EEG_experiment,,2025.1.1,60.15138901627077,2026-01-28 17h17.26.597412 -0400,
25,0,25,down,None,0.39131320000160486,None,,,25,0,25,0,40.80873189999875,,,,,,,,,,,,,,,,,,,,40.79212720000032,40.80873189999875,41.62528089999978,41.60854130000007,2,41.610907000000225,41.62528089999978,41.62528089999978,42.12538289999975,42.12538289999975,42.108562399998846,down,42.10865999999987,42.10868549999941,None,0.39131320000160486,None,,,,,,,,,,sub-008,001,2026-01-28_17h17.09.558,NESC3137_EEG_experiment,,2025.1.1,60.15138901627077,2026-01-28 17h17.26.597412 -0400,
26,0,26,up,None,0.37769309999930556,0.07190730000002077,,,26,0,26,0,42.12538289999975,,,,,,,,,,,,,,,,,,,,42.10881379999955,42.12538289999975,42.774937500000306,42.76102589999937,1,42.763466000000335,42.774937500000306,42.774937500000306,43.27552689999902,43.27552689999902,43.25903300000027,up,43.259100899998884,43.25913059999948,None,0.37769309999930556,0.07190730000002077,,,,,,,,,,sub-008,001,2026-01-28_17h17.09.558,NESC3137_EEG_experiment,,2025.1.1,60.15138901627077,2026-01-28 17h17.26.597412 -0400,
27,0,27,down,None,0.36661090000052354,None,,,27,0,27,0,43.27552689999902,,,,,,,,,,,,,,,,,,,,43.25937150000027,43.27552689999902,44.02582900000016,44.008755900000324,2,44.01149059999989,44.02582900000016,44.02582900000016,,,44.509258000000045,down,44.509335400000055,44.509370199999466,None,0.36661090000052354,None,,,,,,,,,,sub-008,001,2026-01-28_17h17.09.558,NESC3137_EEG_experiment,,2025.1.1,60.15138901627077,2026-01-28 17h17.26.597412 -0400,
28,0,28,up,None,0.4124064999996335,None,,,28,0,28,0,44.52534339999875,,,,,,,,,,,,,,,,,,,,44.50958580000042,44.52534339999875,45.49208439999893,45.47526909999942,1,45.477481899999475,45.49208439999893,45.49208439999893,,,45.97579620000033,up,45.975882799999454,45.97591879999891,None,0.4124064999996335,None,,,,,,,,,,sub-008,001,2026-01-28_17h17.09.558,NESC3137_EEG_experiment,,2025.1.1,60.15138901627077,2026-01-28 17h17.26.597412 -0400,
29,0,29,down,None,0.39790779999930237,None,,,29,0,29,0,45.992415799999435,,,,,,,,,,,,,,,,,,,,45.97613049999927,45.992415799999435,46.84261919999881,46.82623909999893,2,46.8290808999991,46.84261919999881,46.84261919999881,47.34169159999874,47.34169159999874,47.325602299999446,down,47.32566020000013,47.3256908000003,None,0.39790779999930237,None,,,,,,,,,,sub-008,001,2026-01-28_17h17.09.558,NESC3137_EEG_experiment,,2025.1.1,60.15138901627077,2026-01-28 17h17.26.597412 -0400,
30,0,30,None,None,,,,,30,0,30,0,47.34169159999874,,,,,,,,,,,,,,,,,,,,47.325865499999054,47.34169159999874,48.042634100000214,48.025786599999265,1,48.02889510000023,48.042634100000214,48.042634100000214,48.541654200000266,48.541654200000266,48.525309200000265,None,48.525344899999254,48.52536340000006,None,,,,,,,,,,,,sub-008,001,2026-01-28_17h17.09.558,NESC3137_EEG_experiment,,2025.1.1,60.15138901627077,2026-01-28 17h17.26.597412 -0400,
31,0,31,down,None,0.44883070000105363,None,,,31,0,31,0,48.541654200000266,,,,,,,,,,,,,,,,,,,,48.525514799999655,48.541654200000266,49.191648899999564,49.17588049999904,2,49.17895899999894,49.191648899999564,49.191648899999564,49.691679499999736,49.691679499999736,49.67515439999988,down,49.67520969999896,49.67523909999909,None,0.44883070000105363,None,,,,,,,,,,sub-008,001,2026-01-28_17h17.09.558,NESC3137_EEG_experiment,,2025.1.1,60.15138901627077,2026-01-28 17h17.26.597412 -0400,
32,0,32,down,None,0.44943129999956,None,,,32,0,32,0,49.691679499999736,,,,,,,,,,,,,,,,,,,,49.67542189999949,49.691679499999736,50.37501189999966,50.35942979999891,2,50.36295959999916,50.37501189999966,50.37501189999966,50.87572579999869,50.87572579999869,50.85916389999875,down,50.85922179999943,50.85925390000011,None,0.44943129999956,None,,,,,,,,,,sub-008,001,2026-01-28_17h17.09.558,NESC3137_EEG_experiment,,2025.1.1,60.15138901627077,2026-01-28 17h17.26.597412 -0400,
33,0,33,up,None,0.37522750000061933,None,,,33,0,33,0,50.87572579999869,,,,,,,,,,,,,,,,,,,,50.859467199999926,50.87572579999869,51.609211199998754,51.59191850000025,1,51.59437499999876,51.609211199998754,51.609211199998754,,,52.09279719999904,up,52.092871699998796,52.092897900000025,None,0.37522750000061933,None,,,,,,,,,,sub-008,001,2026-01-28_17h17.09.558,NESC3137_EEG_experiment,,2025.1.1,60.15138901627077,2026-01-28 17h17.26.597412 -0400,
34,0,34,up,None,0.43265360000077635,None,,,34,0,34,0,52.109014800000296,,,,,,,,,,,,,,,,,,,,52.09305630000017,52.109014800000296,52.992696799999976,52.975486600000295,1,52.97857469999872,52.992696799999976,52.992696799999976,,,53.47596589999921,up,53.476064999998925,53.47610220000024,None,0.43265360000077635,None,,,,,,,,,,sub-008,001,2026-01-28_17h17.09.558,NESC3137_EEG_experiment,,2025.1.1,60.15138901627077,2026-01-28 17h17.26.597412 -0400,
35,0,35,up,None,0.400956600000427,None,,,35,0,35,0,53.49228640000001,,,,,,,,,,,,,,,,,,,,53.47630140000001,53.49228640000001,54.17555119999997,54.15958219999993,1,54.16156020000017,54.17555119999997,54.17555119999997,54.67563859999973,54.67563859999973,54.65915599999971,up,54.659222899999804,54.65925479999896,None,0.400956600000427,None,,,,,,,,,,sub-008,001,2026-01-28_17h17.09.558,NESC3137_EEG_experiment,,2025.1.1,60.15138901627077,2026-01-28 17h17.26.597412 -0400,
36,0,36,up,None,0.37825379999958386,None,,,36,0,36,0,54.67563859999973,,,,,,,,,,,,,,,,,,,,54.65947199999937,54.67563859999973,55.542282200000045,55.52597109999988,1,55.528117300000304,55.542282200000045,55.542282200000045,56.04225199999928,56.04225199999928,56.026003499999206,up,56.02608099999998,56.02617409999948,None,0.37825379999958386,None,,,,,,,,,,sub-008,001,2026-01-28_17h17.09.558,NESC3137_EEG_experiment,,2025.1.1,60.15138901627077,2026-01-28 17h17.26.597412 -0400,
37,0,37,up,None,0.332239400000617,0.10393979999935254,,,37,0,37,0,56.04225199999928,,,,,,,,,,,,,,,,,,,,56.02638229999866,56.04225199999928,56.70832519999931,56.692393999999695,2,56.69462779999958,56.70832519999931,56.70832519999931,,,57.19251819999954,up,57.19258799999989,57.19262239999989,None,0.332239400000617,0.10393979999935254,,,,,,,,,,sub-008,001,2026-01-28_17h17.09.558,NESC3137_EEG_experiment,,2025.1.1,60.15138901627077,2026-01-28 17h17.26.597412 -0400,
38,0,38,up,None,0.4107456000001548,None,,,38,0,38,0,57.20956219999971,,,,,,,,,,,,,,,,,,,,57.192831999998816,57.20956219999971,58.1257571999995,58.10913309999887,1,58.11184080000021,58.1257571999995,58.1257571999995,58.62570609999966,58.62570609999966,58.60931879999953,up,58.609398200000214,58.609428699999626,None,0.4107456000001548,None,,,,,,,,,,sub-008,001,2026-01-28_17h17.09.558,NESC3137_EEG_experiment,,2025.1.1,60.15138901627077,2026-01-28 17h17.26.597412 -0400,
39,0,39,up,None,0.41393109999989974,None,,,39,0,39,0,58.62570609999966,,,,,,,,,,,,,,,,,,,,58.60960559999876,58.62570609999966,59.458392799999274,59.442456999999195,1,59.445092199999635,59.458392799999274,59.458392799999274,,,59.94264139999905,up,59.942838299999494,59.94289579999895,None,0.41393109999989974,None,,,,,,,,,,sub-008,001,2026-01-28_17h17.09.558,NESC3137_EEG_experiment,,2025.1.1,60.15138901627077,2026-01-28 17h17.26.597412 -0400,
40,0,40,up,None,0.3715553000001819,None,,,40,0,40,0,59.95917819999886,,,,,,,,,,,,,,,,,,,,59.94315549999919,59.95917819999886,60.90884039999946,60.89249949999976,1,60.89456599999903,60.90884039999946,60.90884039999946,61.409008299999186,61.409008299999186,61.39269710000008,up,61.392763099998774,61.39279319999878,None,0.3715553000001819,None,,,,,,,,,,sub-008,001,2026-01-28_17h17.09.558,NESC3137_EEG_experiment,,2025.1.1,60.15138901627077,2026-01-28 17h17.26.597412 -0400,
41,0,41,down,None,0.41170169999895734,None,,,41,0,41,0,61.409008299999186,,,,,,,,,,,,,,,,,,,,61.39298119999876,61.409008299999186,62.158495499999844,62.1427719000003,2,62.14592590000029,62.158495499999844,62.158495499999844,62.65837549999924,62.65837549999924,62.64268230000016,down,62.64274619999924,62.642774899999495,None,0.41170169999895734,None,,,,,,,,,,sub-008,001,2026-01-28_17h17.09.558,NESC3137_EEG_experiment,,2025.1.1,60.15138901627077,2026-01-28 17h17.26.597412 -0400,
42,0,42,None,None,,,,,42,0,42,0,62.65837549999924,,,,,,,,,,,,,,,,,,,,62.64294729999892,62.65837549999924,63.35909689999971,63.34287559999939,2,63.34549789999983,63.35909689999971,63.35909689999971,63.859011599999576,63.859011599999576,63.84270359999937,None,63.84275569999954,63.84278540000014,None,,,,,,,,,,,,sub-008,001,2026-01-28_17h17.09.558,NESC3137_EEG_experiment,,2025.1.1,60.15138901627077,2026-01-28 17h17.26.597412 -0400,
43,0,43,up,None,0.3388544000008551,0.1280246000005718,,,43,0,43,0,63.859011599999576,,,,,,,,,,,,,,,,,,,,63.84298429999944,63.859011599999576,64.74167200000011,64.72558729999946,1,64.72796799999924,64.74167200000011,64.74167200000011,65.24221380000017,65.24221380000017,65.22541280000041,up,65.22548149999966,65.22550090000004,None,0.3388544000008551,0.1280246000005718,,,,,,,,,,sub-008,001,2026-01-28_17h17.09.558,NESC3137_EEG_experiment,,2025.1.1,60.15138901627077,2026-01-28 17h17.26.597412 -0400,
44,0,44,up,None,0.35231990000102087,None,,,44,0,44,0,65.24221380000017,,,,,,,,,,,,,,,,,,,,65.22563549999904,65.24221380000017,65.79212579999876,65.7754103999996,1,65.7774475999995,65.79212579999876,65.79212579999876,,,66.27576319999935,up,66.27584999999999,66.27588529999957,None,0.35231990000102087,None,,,,,,,,,,sub-008,001,2026-01-28_17h17.09.558,NESC3137_EEG_experiment,,2025.1.1,60.15138901627077,2026-01-28 17h17.26.597412 -0400,
45,0,45,up,None,0.3021795000004204,None,,,45,0,45,0,66.29269899999963,,,,,,,,,,,,,,,,,,,,66.27611029999935,66.29269899999963,66.85833719999937,66.84256180000011,1,66.84493309999925,66.85833719999937,66.85833719999937,67.3590609999992,67.3590609999992,67.34271289999924,up,67.34277049999946,67.34279919999972,None,0.3021795000004204,None,,,,,,,,,,sub-008,001,2026-01-28_17h17.09.558,NESC3137_EEG_experiment,,2025.1.1,60.15138901627077,2026-01-28 17h17.26.597412 -0400,
46,0,46,up,None,0.26879879999978584,0.13581089999934193,,,46,0,46,0,67.3590609999992,,,,,,,,,,,,,,,,,,,,67.34298829999898,67.3590609999992,68.27576529999897,68.25953459999982,1,68.26219039999887,68.27576529999897,68.27576529999897,68.77530709999883,68.77530709999883,68.75925199999983,up,68.7593238999998,68.75934699999925,None,0.26879879999978584,0.13581089999934193,,,,,,,,,,sub-008,001,2026-01-28_17h17.09.558,NESC3137_EEG_experiment,,2025.1.1,60.15138901627077,2026-01-28 17h17.26.597412 -0400,
47,0,47,up,None,0.29147349999948347,0.15204459999949904,,,47,0,47,0,68.77530709999883,,,,,,,,,,,,,,,,,,,,68.75953560000016,68.77530709999883,69.30886049999935,69.29277699999875,1,69.29487419999896,69.30886049999935,69.30886049999935,69.80864889999975,69.80864889999975,69.79200899999887,up,69.792068499999,69.79210059999969,None,0.29147349999948347,0.15204459999949904,,,,,,,,,,sub-008,001,2026-01-28_17h17.09.558,NESC3137_EEG_experiment,,2025.1.1,60.15138901627077,2026-01-28 17h17.26.597412 -0400,
48,0,48,down,None,0.3978184000006877,None,,,48,0,48,0,69.80864889999975,,,,,,,,,,,,,,,,,,,,69.7922854999997,69.80864889999975,70.65869969999949,70.64217119999921,2,70.64475929999935,70.65869969999949,70.65869969999949,71.15912289999869,71.15912289999869,71.14218489999985,down,71.14225069999884,71.14228339999863,None,0.3978184000006877,None,,,,,,,,,,sub-008,001,2026-01-28_17h17.09.558,NESC3137_EEG_experiment,,2025.1.1,60.15138901627077,2026-01-28 17h17.26.597412 -0400,
49,0,49,up,None,0.3950656999986677,None,,,49,0,49,0,71.15912289999869,,,,,,,,,,,,,,,,,,,,71.14247760000035,71.15912289999869,71.92534909999995,71.9085271999993,1,71.91067789999943,71.92534909999995,71.92534909999995,,,72.40882659999988,up,72.40891089999968,72.40898659999948,None,0.3950656999986677,None,,,,,,,,,,sub-008,001,2026-01-28_17h17.09.558,NESC3137_EEG_experiment,,2025.1.1,60.15138901627077,2026-01-28 17h17.26.597412 -0400,
50,0,50,down,None,0.4397579000014957,None,,,50,0,50,0,72.42578839999987,,,,,,,,,,,,,,,,,,,,72.40921999999955,72.42578839999987,73.39267069999914,73.3756171999994,2,73.37814029999936,73.39267069999914,73.39267069999914,,,73.89229779999914,down,73.89234699999906,73.89237619999949,None,0.4397579000014957,None,,,,,,,,,,sub-008,001,2026-01-28_17h17.09.558,NESC3137_EEG_experiment,,2025.1.1,60.15138901627077,2026-01-28 17h17.26.597412 -0400,
51,0,51,up,None,0.39484949999859964,None,,,51,0,51,0,73.90896839999914,,,,,,,,,,,,,,,,,,,,73.89250759999959,73.90896839999914,74.72575440000037,74.7095434999992,1,74.71220439999888,74.72575440000037,74.72575440000037,75.22555529999954,75.22555529999954,75.20932150000044,up,75.20937819999926,75.20940679999876,None,0.39484949999859964,None,,,,,,,,,,sub-008,001,2026-01-28_17h17.09.558,NESC3137_EEG_experiment,,2025.1.1,60.15138901627077,2026-01-28 17h17.26.597412 -0400,
52,0,52,down,None,0.41999220000070636,None,,,52,0,52,0,75.22555529999954,,,,,,,,,,,,,,,,,,,,75.20963200000006,75.22555529999954,76.10841590000018,76.09278789999917,2,76.0961669999997,76.10841590000018,76.10841590000018,76.60925299999872,76.60925299999872,76.59254559999863,down,76.59260369999902,76.59263429999919,None,0.41999220000070636,None,,,,,,,,,,sub-008,001,2026-01-28_17h17.09.558,NESC3137_EEG_experiment,,2025.1.1,60.15138901627077,2026-01-28 17h17.26.597412 -0400,
53,0,53,down,None,0.37591930000053253,None,,,53,0,53,0,76.60925299999872,,,,,,,,,,,,,,,,,,,,76.59284699999989,76.60925299999872,77.40853029999926,77.39259029999994,2,77.39551790000041,77.40853029999926,77.40853029999926,77.90826269999889,77.90826269999889,77.89245440000013,down,77.89251089999925,77.89254009999968,None,0.37591930000053253,None,,,,,,,,,,sub-008,001,2026-01-28_17h17.09.558,NESC3137_EEG_experiment,,2025.1.1,60.15138901627077,2026-01-28 17h17.26.597412 -0400,
54,0,54,up,None,0.3650930999992852,None,,,54,0,54,0,77.90826269999889,,,,,,,,,,,,,,,,,,,,77.89271149999877,77.90826269999889,78.8754828000001,78.8586180000002,1,78.86052170000039,78.8754828000001,78.8754828000001,,,79.35903320000034,up,79.35911839999972,79.35914439999942,None,0.3650930999992852,None,,,,,,,,,,sub-008,001,2026-01-28_17h17.09.558,NESC3137_EEG_experiment,,2025.1.1,60.15138901627077,2026-01-28 17h17.26.597412 -0400,
55,0,55,down,None,0.4113078000009409,None,,,55,0,55,0,79.37580369999887,,,,,,,,,,,,,,,,,,,,79.35932599999978,79.37580369999887,80.30910079999921,80.29249469999922,2,80.29503759999898,80.30910079999921,80.30910079999921,80.80897189999996,80.80897189999996,80.79191580000042,down,80.7919912999987,80.79202459999942,None,0.4113078000009409,None,,,,,,,,,,sub-008,001,2026-01-28_17h17.09.558,NESC3137_EEG_experiment,,2025.1.1,60.15138901627077,2026-01-28 17h17.26.597412 -0400,
56,0,56,down,None,0.3947807999993529,None,,,56,0,56,0,80.80897189999996,,,,,,,,,,,,,,,,,,,,80.79222309999932,80.80897189999996,81.5256935999987,81.50923909999983,2,81.51165649999894,81.5256935999987,81.5256935999987,82.02533819999917,82.02533819999917,82.0091543999988,down,82.00922659999924,82.00926119999895,None,0.3947807999993529,None,,,,,,,,,,sub-008,001,2026-01-28_17h17.09.558,NESC3137_EEG_experiment,,2025.1.1,60.15138901627077,2026-01-28 17h17.26.597412 -0400,
57,0,57,down,None,0.42475910000030126,None,,,57,0,57,0,82.02533819999917,,,,,,,,,,,,,,,,,,,,82.00951309999982,82.02533819999917,82.57572269999946,82.55850119999923,2,82.56107049999991,82.57572269999946,82.57572269999946,83.0750078000001,83.0750078000001,83.05852789999881,down,83.05858369999987,83.05861299999924,None,0.42475910000030126,None,,,,,,,,,,sub-008,001,2026-01-28_17h17.09.558,NESC3137_EEG_experiment,,2025.1.1,60.15138901627077,2026-01-28 17h17.26.597412 -0400,
58,0,58,None,None,,,,,58,0,58,0,83.0750078000001,,,,,,,,,,,,,,,,,,,,83.0587857999999,83.0750078000001,83.97573099999863,83.95931089999976,2,83.9613991999995,83.97573099999863,83.97573099999863,84.47550389999924,84.47550389999924,84.45941419999872,None,84.45947259999957,84.45950409999932,None,,,,,,,,,,,,sub-008,001,2026-01-28_17h17.09.558,NESC3137_EEG_experiment,,2025.1.1,60.15138901627077,2026-01-28 17h17.26.597412 -0400,
59,0,59,None,None,,,,,59,0,59,0,84.47550389999924,,,,,,,,,,,,,,,,,,,,84.45968469999934,84.47550389999924,85.074885,85.05893279999873,2,85.06155330000001,85.074885,85.074885,,,85.55918589999965,None,85.55925749999915,85.55929130000004,None,,,,,,,,,,,,sub-008,001,2026-01-28_17h17.09.558,NESC3137_EEG_experiment,,2025.1.1,60.15138901627077,2026-01-28 17h17.26.597412 -0400,
60,0,60,down,None,0.32171480000033625,0.1199679000001197,,,60,0,60,0,85.57545649999884,,,,,,,,,,,,,,,,,,,,85.55949150000015,85.57545649999884,86.3586837999992,86.34310550000009,2,86.34651060000033,86.3586837999992,86.3586837999992,86.85900020000008,86.85900020000008,86.84235040000021,down,86.84239299999899,86.84241139999904,None,0.32171480000033625,0.1199679000001197,,,,,,,,,,sub-008,001,2026-01-28_17h17.09.558,NESC3137_EEG_experiment,,2025.1.1,60.15138901627077,2026-01-28 17h17.26.597412 -0400,
61,0,61,down,None,0.34419159999924887,0.12002410000059172,,,61,0,61,0,86.85900020000008,,,,,,,,,,,,,,,,,,,,86.84254709999914,86.85900020000008,87.59216620000007,87.57683429999997,2,87.57958879999933,87.59216620000007,87.59216620000007,88.09157509999932,88.09157509999932,88.07662779999919,down,88.0767023999997,88.07673169999907,None,0.34419159999924887,0.12002410000059172,,,,,,,,,,sub-008,001,2026-01-28_17h17.09.558,NESC3137_EEG_experiment,,2025.1.1,60.15138901627077,2026-01-28 17h17.26.597412 -0400,
62,0,62,up,None,0.44586629999867,None,,,62,0,62,0,88.09157509999932,,,,,,,,,,,,,,,,,,,,88.07689589999973,88.09157509999932,89.07544269999926,89.05856109999877,1,89.06103139999868,89.07544269999926,89.07544269999926,,,89.55900649999967,up,89.55906359999972,89.55908669999917,None,0.44586629999867,None,,,,,,,,,,sub-008,001,2026-01-28_17h17.09.558,NESC3137_EEG_experiment,,2025.1.1,60.15138901627077,2026-01-28 17h17.26.597412 -0400,
63,0,63,down,None,0.41854590000002645,None,,,63,0,63,0,89.57560959999864,,,,,,,,,,,,,,,,,,,,89.55923419999999,89.57560959999864,90.32584700000007,90.30919989999893,2,90.31237959999999,90.32584700000007,90.32584700000007,90.82576929999959,90.82576929999959,90.80936789999942,down,90.80941749999874,90.80943519999892,None,0.41854590000002645,None,,,,,,,,,,sub-008,001,2026-01-28_17h17.09.558,NESC3137_EEG_experiment,,2025.1.1,60.15138901627077,2026-01-28 17h17.26.597412 -0400,
64,0,64,down,None,0.35236670000085724,None,,,64,0,64,0,90.82576929999959,,,,,,,,,,,,,,,,,,,,90.80956479999986,90.82576929999959,91.3923176999997,91.37595849999889,2,91.37863619999916,91.3923176999997,91.3923176999997,91.89230440000028,91.89230440000028,91.87574370000038,down,91.87580849999904,91.87583919999997,None,0.35236670000085724,None,,,,,,,,,,sub-008,001,2026-01-28_17h17.09.558,NESC3137_EEG_experiment,,2025.1.1,60.15138901627077,2026-01-28 17h17.26.597412 -0400,
65,0,65,up,None,0.33712219999870285,None,,,65,0,65,0,91.89230440000028,,,,,,,,,,,,,,,,,,,,91.87606830000004,91.89230440000028,92.59164769999916,92.57578610000019,1,92.57816289999937,92.59164769999916,92.59164769999916,,,93.07834419999926,up,93.07841729999927,93.07845319999979,None,0.33712219999870285,None,,,,,,,,,,sub-008,001,2026-01-28_17h17.09.558,NESC3137_EEG_experiment,,2025.1.1,60.15138901627077,2026-01-28 17h17.26.597412 -0400,
66,0,66,up,None,0.27509399999871675,0.05595230000108131,,,66,0,66,0,93.09236229999988,,,,,,,,,,,,,,,,,,,,93.07864859999972,93.09236229999988,93.70933440000044,93.69231049999871,1,93.69435729999896,93.70933440000044,93.70933440000044,,,94.19270150000011,up,94.19276170000012,94.1927842999994,None,0.27509399999871675,0.05595230000108131,,,,,,,,,,sub-008,001,2026-01-28_17h17.09.558,NESC3137_EEG_experiment,,2025.1.1,60.15138901627077,2026-01-28 17h17.26.597412 -0400,
67,0,67,None,None,,,,,67,0,67,0,94.20884579999984,,,,,,,,,,,,,,,,,,,,94.19294809999883,94.20884579999984,94.8749415000002,94.85934280000038,2,94.86185429999932,94.8749415000002,94.8749415000002,95.37509979999959,95.37509979999959,95.35956950000036,None,95.35963099999935,95.35966439999902,None,,,,,,,,,,,,sub-008,001,2026-01-28_17h17.09.558,NESC3137_EEG_experiment,,2025.1.1,60.15138901627077,2026-01-28 17h17.26.597412 -0400,
68,0,68,down,None,0.391307500000039,None,,,68,0,68,0,95.37509979999959,,,,,,,,,,,,,,,,,,,,95.35987059999934,95.37509979999959,96.0253130000001,96.00914319999902,2,96.01194599999872,96.0253130000001,96.0253130000001,96.52560639999865,96.52560639999865,96.50875850000011,down,96.50882129999991,96.50886119999996,None,0.391307500000039,None,,,,,,,,,,sub-008,001,2026-01-28_17h17.09.558,NESC3137_EEG_experiment,,2025.1.1,60.15138901627077,2026-01-28 17h17.26.597412 -0400,
69,0,69,up,None,0.3115503000008175,0.12790189999941504,,,69,0,69,0,96.52560639999865,,,,,,,,,,,,,,,,,,,,96.50903829999879,96.52560639999865,97.40890089999994,97.39275099999941,1,97.39602569999988,97.40890089999994,97.40890089999994,97.90900809999948,97.90900809999948,97.89235240000016,up,97.89240189999873,97.89242109999941,None,0.3115503000008175,0.12790189999941504,,,,,,,,,,sub-008,001,2026-01-28_17h17.09.558,NESC3137_EEG_experiment,,2025.1.1,60.15138901627077,2026-01-28 17h17.26.597412 -0400,
70,0,70,up,None,0.38103659999978845,None,,,70,0,70,0,97.90900809999948,,,,,,,,,,,,,,,,,,,,97.89255500000036,97.90900809999948,98.67539380000017,98.65940709999995,1,98.6624498000001,98.67539380000017,98.67539380000017,99.1754304999995,99.1754304999995,99.15861629999927,up,99.15867719999915,99.15870929999983,None,0.38103659999978845,None,,,,,,,,,,sub-008,001,2026-01-28_17h17.09.558,NESC3137_EEG_experiment,,2025.1.1,60.15138901627077,2026-01-28 17h17.26.597412 -0400,
71,0,71,up,None,0.32173730000067735,None,,,71,0,71,0,99.1754304999995,,,,,,,,,,,,,,,,,,,,99.15890199999922,99.1754304999995,99.95860790000006,99.94250669999929,1,99.94518590000007,99.95860790000006,99.95860790000006,,,100.44280629999957,up,100.44288339999912,100.4429196000001,None,0.32173730000067735,None,,,,,,,,,,sub-008,001,2026-01-28_17h17.09.558,NESC3137_EEG_experiment,,2025.1.1,60.15138901627077,2026-01-28 17h17.26.597412 -0400,
72,0,72,up,None,0.27947779999885825,0.12004440000055183,,,72,0,72,0,100.45899619999909,,,,,,,,,,,,,,,,,,,,100.4431224,100.45899619999909,101.22493980000036,101.20853589999933,1,101.21060709999983,101.22493980000036,101.22493980000036,,,101.70927940000001,up,101.70934329999909,101.70936669999901,None,0.27947779999885825,0.12004440000055183,,,,,,,,,,sub-008,001,2026-01-28_17h17.09.558,NESC3137_EEG_experiment,,2025.1.1,60.15138901627077,2026-01-28 17h17.26.597412 -0400,
73,0,73,up,None,0.3420932000008179,None,,,73,0,73,0,101.72570160000032,,,,,,,,,,,,,,,,,,,,101.70953069999996,101.72570160000032,102.64231529999961,102.62575809999908,1,102.62811309999961,102.64231529999961,102.64231529999961,103.14231589999872,103.14231589999872,103.12577210000018,up,103.1258289999987,103.12585719999879,None,0.3420932000008179,None,,,,,,,,,,sub-008,001,2026-01-28_17h17.09.558,NESC3137_EEG_experiment,,2025.1.1,60.15138901627077,2026-01-28 17h17.26.597412 -0400,
74,0,74,up,None,0.31086580000010144,0.1520055000000866,,,74,0,74,0,103.14231589999872,,,,,,,,,,,,,,,,,,,,103.12606830000004,103.14231589999872,103.84161889999996,103.82564110000021,1,103.8285861000004,103.84161889999996,103.84161889999996,104.34261299999889,104.34261299999889,104.32586189999893,up,104.32592879999902,104.32594909999898,None,0.31086580000010144,0.1520055000000866,,,,,,,,,,sub-008,001,2026-01-28_17h17.09.558,NESC3137_EEG_experiment,,2025.1.1,60.15138901627077,2026-01-28 17h17.26.597412 -0400,
75,0,75,up,None,0.38251169999966805,None,,,75,0,75,0,104.34261299999889,,,,,,,,,,,,,,,,,,,,104.32610670000031,104.34261299999889,105.2588326999994,105.24182660000042,1,105.24368519999916,105.2588326999994,105.2588326999994,,,105.74261990000014,up,105.74271749999934,105.74274669999977,None,0.38251169999966805,None,,,,,,,,,,sub-008,001,2026-01-28_17h17.09.558,NESC3137_EEG_experiment,,2025.1.1,60.15138901627077,2026-01-28 17h17.26.597412 -0400,
76,0,76,down,None,0.43796130000009725,None,,,76,0,76,0,105.75909999999931,,,,,,,,,,,,,,,,,,,,105.74295129999882,105.75909999999931,106.65844990000005,106.64183539999976,2,106.64454490000026,106.65844990000005,106.65844990000005,,,107.14260889999969,down,107.14266700000007,107.14268959999936,None,0.43796130000009725,None,,,,,,,,,,sub-008,001,2026-01-28_17h17.09.558,NESC3137_EEG_experiment,,2025.1.1,60.15138901627077,2026-01-28 17h17.26.597412 -0400,
77,0,77,up,None,0.3675210999990668,None,,,77,0,77,0,107.15904279999995,,,,,,,,,,,,,,,,,,,,107.14284310000039,107.15904279999995,108.00897719999921,107.99260499999946,1,107.9951901000004,108.00897719999921,108.00897719999921,108.50931870000022,108.50931870000022,108.4922977999995,up,108.49236240000027,108.49239139999918,None,0.3675210999990668,None,,,,,,,,,,sub-008,001,2026-01-28_17h17.09.558,NESC3137_EEG_experiment,,2025.1.1,60.15138901627077,2026-01-28 17h17.26.597412 -0400,
78,0,78,up,None,0.34214350000002014,None,,,78,0,78,0,108.50931870000022,,,,,,,,,,,,,,,,,,,,108.49255789999916,108.50931870000022,109.45830070000011,109.44247109999924,1,109.445142999999,109.45830070000011,109.45830070000011,109.95878819999962,109.95878819999962,109.94243019999885,up,109.94249619999937,109.94254229999933,None,0.34214350000002014,None,,,,,,,,,,sub-008,001,2026-01-28_17h17.09.558,NESC3137_EEG_experiment,,2025.1.1,60.15138901627077,2026-01-28 17h17.26.597412 -0400,
79,0,79,None,None,,,,,79,0,79,0,109.95878819999962,,,,,,,,,,,,,,,,,,,,109.94274380000024,109.95878819999962,110.95864369999981,110.94245989999945,2,110.94516549999935,110.95864369999981,110.95864369999981,111.45870859999923,111.45870859999923,111.44272319999982,None,111.44276779999927,111.44279859999915,None,,,,,,,,,,,,sub-008,001,2026-01-28_17h17.09.558,NESC3137_EEG_experiment,,2025.1.1,60.15138901627077,2026-01-28 17h17.26.597412 -0400,
80,0,80,up,None,0.378163700001096,None,,,80,0,80,0,111.45870859999923,,,,,,,,,,,,,,,,,,,,111.44293870000001,111.45870859999923,112.15826279999965,112.14183779999985,1,112.14411319999999,112.15826279999965,112.15826279999965,,,112.64271120000012,up,112.64278079999895,112.64281139999912,None,0.378163700001096,None,,,,,,,,,,sub-008,001,2026-01-28_17h17.09.558,NESC3137_EEG_experiment,,2025.1.1,60.15138901627077,2026-01-28 17h17.26.597412 -0400,
81,0,81,up,None,0.3077759999996488,0.13592910000079428,,,81,0,81,0,112.65887029999976,,,,,,,,,,,,,,,,,,,,112.64299690000007,112.65887029999976,113.50861859999895,113.49378379999871,1,113.49647670000013,113.50861859999895,113.50861859999895,114.00922629999877,114.00922629999877,113.99182119999932,up,113.99188299999878,113.99191359999895,None,0.3077759999996488,0.13592910000079428,,,,,,,,,,sub-008,001,2026-01-28_17h17.09.558,NESC3137_EEG_experiment,,2025.1.1,60.15138901627077,2026-01-28 17h17.26.597412 -0400,
82,0,82,up,None,0.306160699999964,0.1280960000003688,,,82,0,82,0,114.00922629999877,,,,,,,,,,,,,,,,,,,,113.99209700000029,114.00922629999877,114.54227729999911,114.52589289999923,2,114.52845639999941,114.54227729999911,114.54227729999911,115.04239119999875,115.04239119999875,115.0254062999993,up,115.02546319999965,115.0254821999988,None,0.306160699999964,0.1280960000003688,,,,,,,,,,sub-008,001,2026-01-28_17h17.09.558,NESC3137_EEG_experiment,,2025.1.1,60.15138901627077,2026-01-28 17h17.26.597412 -0400,
83,0,83,up,None,0.36908039999980247,None,,,83,0,83,0,115.04239119999875,,,,,,,,,,,,,,,,,,,,115.025654699999,115.04239119999875,115.95921139999882,115.94234080000024,1,115.94459399999869,115.95921139999882,115.95921139999882,,,116.44258489999993,up,116.4426585000001,116.44269340000028,None,0.36908039999980247,None,,,,,,,,,,sub-008,001,2026-01-28_17h17.09.558,NESC3137_EEG_experiment,,2025.1.1,60.15138901627077,2026-01-28 17h17.26.597412 -0400,
84,0,84,up,None,0.2887766999992891,0.12826210000093852,,,84,0,84,0,116.45911139999953,,,,,,,,,,,,,,,,,,,,116.44289910000043,116.45911139999953,117.1915767999999,117.17509119999886,1,117.17722839999988,117.1915767999999,117.1915767999999,,,117.67585169999984,up,117.67592539999896,117.67596169999888,None,0.2887766999992891,0.12826210000093852,,,,,,,,,,sub-008,001,2026-01-28_17h17.09.558,NESC3137_EEG_experiment,,2025.1.1,60.15138901627077,2026-01-28 17h17.26.597412 -0400,
85,0,85,up,None,0.39000789999954577,None,,,85,0,85,0,117.69181190000018,,,,,,,,,,,,,,,,,,,,117.6761637999989,117.69181190000018,118.44256150000001,118.42589880000014,1,118.4290944000004,118.44256150000001,118.44256150000001,118.94186049999917,118.94186049999917,118.92609909999919,up,118.9261594999989,118.92618740000034,None,0.39000789999954577,None,,,,,,,,,,sub-008,001,2026-01-28_17h17.09.558,NESC3137_EEG_experiment,,2025.1.1,60.15138901627077,2026-01-28 17h17.26.597412 -0400,
86,0,86,up,None,0.3697413999998389,None,,,86,0,86,0,118.94186049999917,,,,,,,,,,,,,,,,,,,,118.92638529999931,118.94186049999917,119.558665999999,119.54261029999907,1,119.5463791000002,119.558665999999,119.558665999999,120.0581973999997,120.0581973999997,120.04218029999902,up,120.04223749999983,120.04226720000042,None,0.3697413999998389,None,,,,,,,,,,sub-008,001,2026-01-28_17h17.09.558,NESC3137_EEG_experiment,,2025.1.1,60.15138901627077,2026-01-28 17h17.26.597412 -0400,
87,0,87,up,None,0.28743199999917124,0.1280136000004859,,,87,0,87,0,120.0581973999997,,,,,,,,,,,,,,,,,,,,120.04246509999939,120.0581973999997,120.60890669999935,120.59252419999939,1,120.5953343000001,120.60890669999935,120.60890669999935,121.10863939999945,121.10863939999945,121.092457499999,up,121.09251389999918,121.09254359999977,None,0.28743199999917124,0.1280136000004859,,,,,,,,,,sub-008,001,2026-01-28_17h17.09.558,NESC3137_EEG_experiment,,2025.1.1,60.15138901627077,2026-01-28 17h17.26.597412 -0400,
88,0,88,up,None,0.3270985999988625,0.12805930000104127,,,88,0,88,0,121.10863939999945,,,,,,,,,,,,,,,,,,,,121.09272450000026,121.10863939999945,122.02528249999887,122.00944499999969,1,122.01157299999977,122.02528249999887,122.02528249999887,122.52580649999982,122.52580649999982,122.50961509999979,up,122.50966479999988,122.50968420000027,None,0.3270985999988625,0.12805930000104127,,,,,,,,,,sub-008,001,2026-01-28_17h17.09.558,NESC3137_EEG_experiment,,2025.1.1,60.15138901627077,2026-01-28 17h17.26.597412 -0400,
89,0,89,down,None,0.45633190000080504,None,,,89,0,89,0,122.52580649999982,,,,,,,,,,,,,,,,,,,,122.50983819999965,122.52580649999982,123.39211199999954,123.37581169999976,2,123.37846059999902,123.39211199999954,123.39211199999954,123.89189199999964,123.89189199999964,123.8751785000004,down,123.87523479999982,123.87526389999948,None,0.45633190000080504,None,,,,,,,,,,sub-008,001,2026-01-28_17h17.09.558,NESC3137_EEG_experiment,,2025.1.1,60.15138901627077,2026-01-28 17h17.26.597412 -0400,
90,0,90,down,None,0.35181630000079167,0.11193350000030478,,,90,0,90,0,123.89189199999964,,,,,,,,,,,,,,,,,,,,123.87544899999921,123.89189199999964,124.40861959999893,124.39240559999962,2,124.39476889999969,124.40861959999893,124.40861959999893,124.90853359999892,124.90853359999892,124.89180870000018,down,124.89186439999867,124.89189189999888,None,0.35181630000079167,0.11193350000030478,,,,,,,,,,sub-008,001,2026-01-28_17h17.09.558,NESC3137_EEG_experiment,,2025.1.1,60.15138901627077,2026-01-28 17h17.26.597412 -0400,
91,0,91,down,None,0.36504539999987173,None,,,91,0,91,0,124.90853359999892,,,,,,,,,,,,,,,,,,,,124.89206649999869,124.90853359999892,125.87532589999864,125.85913739999887,2,125.8616267999987,125.87532589999864,125.87532589999864,126.37565259999974,126.37565259999974,126.35933010000008,down,126.35938919999899,126.35941809999895,None,0.36504539999987173,None,,,,,,,,,,sub-008,001,2026-01-28_17h17.09.558,NESC3137_EEG_experiment,,2025.1.1,60.15138901627077,2026-01-28 17h17.26.597412 -0400,
92,0,92,up,None,0.4008336999995663,None,,,92,0,92,0,126.37565259999974,,,,,,,,,,,,,,,,,,,,126.35960849999901,126.37565259999974,126.97557349999988,126.95926539999891,1,126.96138830000018,126.97557349999988,126.97557349999988,127.47506509999948,127.47506509999948,127.45946989999902,up,127.45953729999928,127.45956750000005,None,0.4008336999995663,None,,,,,,,,,,sub-008,001,2026-01-28_17h17.09.558,NESC3137_EEG_experiment,,2025.1.1,60.15138901627077,2026-01-28 17h17.26.597412 -0400,
93,0,93,up,None,0.41098389999933715,None,,,93,0,93,0,127.47506509999948,,,,,,,,,,,,,,,,,,,,127.45976549999978,127.47506509999948,128.3255064999994,128.3092263999988,1,128.31134249999923,128.3255064999994,128.3255064999994,,,128.80936219999967,up,128.80943800000023,128.8094732999998,None,0.41098389999933715,None,,,,,,,,,,sub-008,001,2026-01-28_17h17.09.558,NESC3137_EEG_experiment,,2025.1.1,60.15138901627077,2026-01-28 17h17.26.597412 -0400,
94,0,94,down,None,0.4619075000009616,None,,,94,0,94,0,128.82522769999923,,,,,,,,,,,,,,,,,,,,128.8096843000003,128.82522769999923,129.65852919999998,129.64214960000027,2,129.64476879999893,129.65852919999998,129.65852919999998,,,130.14243369999895,down,130.14249930000005,130.1425333999996,None,0.4619075000009616,None,,,,,,,,,,sub-008,001,2026-01-28_17h17.09.558,NESC3137_EEG_experiment,,2025.1.1,60.15138901627077,2026-01-28 17h17.26.597412 -0400,
95,0,95,up,None,0.39300679999905697,None,,,95,0,95,0,130.1585888999998,,,,,,,,,,,,,,,,,,,,130.14272290000008,130.1585888999998,130.97528779999993,130.95851980000043,1,130.96078859999943,130.97528779999993,130.97528779999993,,,131.4593834999996,up,131.45947139999953,131.45950699999958,None,0.39300679999905697,None,,,,,,,,,,sub-008,001,2026-01-28_17h17.09.558,NESC3137_EEG_experiment,,2025.1.1,60.15138901627077,2026-01-28 17h17.26.597412 -0400,
96,0,96,down,None,0.3769353999996383,None,,,96,0,96,0,131.47553119999975,,,,,,,,,,,,,,,,,,,,131.4597673999997,131.47553119999975,132.17541749999873,132.15850800000044,2,132.1612140999987,132.17541749999873,132.17541749999873,,,132.658883099999,down,132.6589645999993,132.6589912999989,None,0.3769353999996383,None,,,,,,,,,,sub-008,001,2026-01-28_17h17.09.558,NESC3137_EEG_experiment,,2025.1.1,60.15138901627077,2026-01-28 17h17.26.597412 -0400,
97,0,97,up,None,0.41654169999856094,None,,,97,0,97,0,132.67585899999904,,,,,,,,,,,,,,,,,,,,132.6591787999987,132.67585899999904,133.57577800000035,133.55940349999946,1,133.56196509999972,133.57577800000035,133.57577800000035,134.07537819999925,134.07537819999925,134.05893979999928,up,134.05900119999933,134.05903409999883,None,0.41654169999856094,None,,,,,,,,,,sub-008,001,2026-01-28_17h17.09.558,NESC3137_EEG_experiment,,2025.1.1,60.15138901627077,2026-01-28 17h17.26.597412 -0400,
98,0,98,up,None,0.39132229999995616,None,,,98,0,98,0,134.07537819999925,,,,,,,,,,,,,,,,,,,,134.0592560999994,134.07537819999925,135.00899310000023,134.99252460000025,1,134.9950878999989,135.00899310000023,135.00899310000023,135.50912400000016,135.50912400000016,135.4923691999993,up,135.49244069999986,135.4924744,None,0.39132229999995616,None,,,,,,,,,,sub-008,001,2026-01-28_17h17.09.558,NESC3137_EEG_experiment,,2025.1.1,60.15138901627077,2026-01-28 17h17.26.597412 -0400,
99,0,99,up,None,0.3566452000013669,None,,,99,0,99,0,135.50912400000016,,,,,,,,,,,,,,,,,,,,135.4926818999993,135.50912400000016,136.07567550000022,136.05924400000004,2,136.06114209999942,136.07567550000022,136.07567550000022,136.57591619999948,136.57591619999948,136.55906940000023,up,136.55912669999998,136.55915239999922,None,0.3566452000013669,None,,,,,,,,,,sub-008,001,2026-01-28_17h17.09.558,NESC3137_EEG_experiment,,2025.1.1,60.15138901627077,2026-01-28 17h17.26.597412 -0400,
100,0,100,up,None,0.42791289999877336,None,,,100,0,100,0,136.57591619999948,,,,,,,,,,,,,,,,,,,,136.5593289999997,136.57591619999948,137.3086248999989,137.2922344999988,1,137.29461129999981,137.3086248999989,137.3086248999989,137.8090548,137.8090548,137.7920310999998,up,137.79209479999918,137.79212480000024,None,0.42791289999877336,None,,,,,,,,,,sub-008,001,2026-01-28_17h17.09.558,NESC3137_EEG_experiment,,2025.1.1,60.15138901627077,2026-01-28 17h17.26.597412 -0400,
101,0,101,up,None,0.3639447999994445,None,,,101,0,101,0,137.8090548,,,,,,,,,,,,,,,,,,,,137.7923152000003,137.8090548,138.50846920000004,138.49283449999893,1,138.49636889999965,138.50846920000004,138.50846920000004,139.00902080000014,139.00902080000014,138.99240509999981,up,138.9924534999991,138.99247429999923,None,0.3639447999994445,None,,,,,,,,,,sub-008,001,2026-01-28_17h17.09.558,NESC3137_EEG_experiment,,2025.1.1,60.15138901627077,2026-01-28 17h17.26.597412 -0400,
102,0,102,down,None,0.426120299998729,None,,,102,0,102,0,139.00902080000014,,,,,,,,,,,,,,,,,,,,138.9925979999989,139.00902080000014,139.74223539999912,139.72569699999985,2,139.7286554000002,139.74223539999912,139.74223539999912,140.24216589999924,140.24216589999924,140.22555949999878,down,140.22560840000006,140.22562689999904,None,0.426120299998729,None,,,,,,,,,,sub-008,001,2026-01-28_17h17.09.558,NESC3137_EEG_experiment,,2025.1.1,60.15138901627077,2026-01-28 17h17.26.597412 -0400,
103,0,103,down,None,0.34206000000085623,None,,,103,0,103,0,140.24216589999924,,,,,,,,,,,,,,,,,,,,140.22577359999923,140.24216589999924,140.84229609999966,140.82518119999986,2,140.82742879999932,140.84229609999966,140.84229609999966,,,141.32553199999893,down,141.32559930000025,141.32564470000034,None,0.34206000000085623,None,,,,,,,,,,sub-008,001,2026-01-28_17h17.09.558,NESC3137_EEG_experiment,,2025.1.1,60.15138901627077,2026-01-28 17h17.26.597412 -0400,
104,0,104,down,None,0.38304100000095787,None,,,104,0,104,0,141.34216529999867,,,,,,,,,,,,,,,,,,,,141.32587140000032,141.34216529999867,142.22541629999978,142.20911009999872,2,142.21176000000014,142.22541629999978,142.22541629999978,,,142.70936579999943,down,142.70943850000003,142.70946209999966,None,0.38304100000095787,None,,,,,,,,,,sub-008,001,2026-01-28_17h17.09.558,NESC3137_EEG_experiment,,2025.1.1,60.15138901627077,2026-01-28 17h17.26.597412 -0400,
105,0,105,up,None,0.4126040000010107,None,,,105,0,105,0,142.72550760000013,,,,,,,,,,,,,,,,,,,,142.7096657000002,142.72550760000013,143.2920409999988,143.27602399999887,1,143.27923649999866,143.2920409999988,143.2920409999988,143.79215180000028,143.79215180000028,143.7750648000001,up,143.77512079999906,143.77514849999898,None,0.4126040000010107,None,,,,,,,,,,sub-008,001,2026-01-28_17h17.09.558,NESC3137_EEG_experiment,,2025.1.1,60.15138901627077,2026-01-28 17h17.26.597412 -0400,
106,0,106,up,None,0.32780559999991965,None,,,106,0,106,0,143.79215180000028,,,,,,,,,,,,,,,,,,,,143.77532690000044,143.79215180000028,144.59252519999973,144.57534809999925,1,144.57766939999965,144.59252519999973,144.59252519999973,,,145.0756894999995,up,145.07576419999896,145.07579830000032,None,0.32780559999991965,None,,,,,,,,,,sub-008,001,2026-01-28_17h17.09.558,NESC3137_EEG_experiment,,2025.1.1,60.15138901627077,2026-01-28 17h17.26.597412 -0400,
107,0,107,up,None,0.3100553999993281,0.15182030000141822,,,107,0,107,0,145.09241689999908,,,,,,,,,,,,,,,,,,,,145.0759614999988,145.09241689999908,146.0424254999998,146.02564659999916,1,146.0276374999994,146.0424254999998,146.0424254999998,146.54247679999935,146.54247679999935,146.5251503999989,up,146.52520619999996,146.52523610000026,None,0.3100553999993281,0.15182030000141822,,,,,,,,,,sub-008,001,2026-01-28_17h17.09.558,NESC3137_EEG_experiment,,2025.1.1,60.15138901627077,2026-01-28 17h17.26.597412 -0400,
108,0,108,None,None,,,,,108,0,108,0,146.54247679999935,,,,,,,,,,,,,,,,,,,,146.52540599999884,146.54247679999935,147.47540800000024,147.45880860000034,2,147.46069969999917,147.47540800000024,147.47540800000024,147.97544089999974,147.97544089999974,147.95839439999872,None,147.95842730000004,147.9584436999994,None,,,,,,,,,,,,sub-008,001,2026-01-28_17h17.09.558,NESC3137_EEG_experiment,,2025.1.1,60.15138901627077,2026-01-28 17h17.26.597412 -0400,
109,0,109,down,None,0.36219080000046233,None,,,109,0,109,0,147.97544089999974,,,,,,,,,,,,,,,,,,,,147.95854990000043,147.97544089999974,148.94218699999874,148.9258305000003,2,148.92878009999913,148.94218699999874,148.94218699999874,,,149.4259560999999,down,149.42600969999876,149.4260366999988,None,0.36219080000046233,None,,,,,,,,,,sub-008,001,2026-01-28_17h17.09.558,NESC3137_EEG_experiment,,2025.1.1,60.15138901627077,2026-01-28 17h17.26.597412 -0400,
110,0,110,up,None,0.43853999999919324,None,,,110,0,110,0,149.44222420000006,,,,,,,,,,,,,,,,,,,,149.42618389999916,149.44222420000006,150.04207529999985,150.02511049999885,1,150.0272301999994,150.04207529999985,150.04207529999985,,,150.52569579999908,up,150.52576099999897,150.52578389999871,None,0.43853999999919324,None,,,,,,,,,,sub-008,001,2026-01-28_17h17.09.558,NESC3137_EEG_experiment,,2025.1.1,60.15138901627077,2026-01-28 17h17.26.597412 -0400,
111,0,111,down,None,0.4457200999986526,None,,,111,0,111,0,150.54222779999873,,,,,,,,,,,,,,,,,,,,150.52594409999983,150.54222779999873,151.45862619999934,151.4424332999988,2,151.44519330000003,151.45862619999934,151.45862619999934,151.95897989999867,151.95897989999867,151.9426371999998,down,151.94269129999884,151.94272979999914,None,0.4457200999986526,None,,,,,,,,,,sub-008,001,2026-01-28_17h17.09.558,NESC3137_EEG_experiment,,2025.1.1,60.15138901627077,2026-01-28 17h17.26.597412 -0400,
112,0,112,up,None,0.40302389999851584,None,,,112,0,112,0,151.95897989999867,,,,,,,,,,,,,,,,,,,,151.9428788999994,151.95897989999867,152.52570500000002,152.50890020000043,1,152.51087600000028,152.52570500000002,152.52570500000002,,,153.0092437000003,up,153.00932929999908,153.00936100000035,None,0.40302389999851584,None,,,,,,,,,,sub-008,001,2026-01-28_17h17.09.558,NESC3137_EEG_experiment,,2025.1.1,60.15138901627077,2026-01-28 17h17.26.597412 -0400,
113,0,113,down,None,0.44710549999945215,None,,,113,0,113,0,153.02571309999985,,,,,,,,,,,,,,,,,,,,153.00956529999894,153.02571309999985,154.00910999999905,153.9919360999993,2,153.99455649999982,154.00910999999905,154.00910999999905,,,154.492356499999,down,154.49242439999944,154.49246080000012,None,0.44710549999945215,None,,,,,,,,,,sub-008,001,2026-01-28_17h17.09.558,NESC3137_EEG_experiment,,2025.1.1,60.15138901627077,2026-01-28 17h17.26.597412 -0400,
114,0,114,down,None,0.32633960000021034,0.10404460000063409,,,114,0,114,0,154.50853689999894,,,,,,,,,,,,,,,,,,,,154.49264219999895,154.50853689999894,155.4420098999999,155.42507659999865,2,155.42728979999993,155.4420098999999,155.4420098999999,,,155.9257061999997,down,155.92576799999915,155.9257906999992,None,0.32633960000021034,0.10404460000063409,,,,,,,,,,sub-008,001,2026-01-28_17h17.09.558,NESC3137_EEG_experiment,,2025.1.1,60.15138901627077,2026-01-28 17h17.26.597412 -0400,
115,0,115,up,None,0.3810988000004727,None,,,115,0,115,0,155.94220320000022,,,,,,,,,,,,,,,,,,,,155.92607729999872,155.94220320000022,156.85922149999897,156.84332879999965,1,156.84609239999918,156.85922149999897,156.85922149999897,157.35823600000003,157.35823600000003,157.34261089999927,up,157.34266810000008,157.34269759999916,None,0.3810988000004727,None,,,,,,,,,,sub-008,001,2026-01-28_17h17.09.558,NESC3137_EEG_experiment,,2025.1.1,60.15138901627077,2026-01-28 17h17.26.597412 -0400,
116,0,116,None,None,,,,,116,0,116,0,157.35823600000003,,,,,,,,,,,,,,,,,,,,157.34287869999935,157.35823600000003,158.09192839999923,158.07507590000023,2,158.07718810000006,158.09192839999923,158.09192839999923,,,158.5753592000001,None,158.57541349999883,158.57545469999968,None,,,,,,,,,,,,sub-008,001,2026-01-28_17h17.09.558,NESC3137_EEG_experiment,,2025.1.1,60.15138901627077,2026-01-28 17h17.26.597412 -0400,
117,0,117,up,None,0.3588168999995105,None,,,117,0,117,0,158.59162629999992,,,,,,,,,,,,,,,,,,,,158.57564610000009,158.59162629999992,159.44159839999884,159.42587549999917,1,159.42857279999953,159.44159839999884,159.44159839999884,159.94254869999895,159.94254869999895,159.9259760999994,up,159.92603710000003,159.9260661999997,None,0.3588168999995105,None,,,,,,,,,,sub-008,001,2026-01-28_17h17.09.558,NESC3137_EEG_experiment,,2025.1.1,60.15138901627077,2026-01-28 17h17.26.597412 -0400,
118,0,118,down,None,0.37167239999871526,None,,,118,0,118,0,159.94254869999895,,,,,,,,,,,,,,,,,,,,159.92624389999946,159.94254869999895,160.90873809999903,160.8920853999989,2,160.8941537999999,160.90873809999903,160.90873809999903,,,161.39222410000002,down,161.39229159999923,161.39232730000003,None,0.37167239999871526,None,,,,,,,,,,sub-008,001,2026-01-28_17h17.09.558,NESC3137_EEG_experiment,,2025.1.1,60.15138901627077,2026-01-28 17h17.26.597412 -0400,
119,0,119,down,None,0.3843118999993749,None,,,119,0,119,0,161.4088230999987,,,,,,,,,,,,,,,,,,,,161.3925151000003,161.4088230999987,162.1920556999994,162.17579529999966,2,162.17807410000023,162.1920556999994,162.1920556999994,162.69206610000037,162.69206610000037,162.67592409999997,down,162.67597419999947,162.67599410000003,None,0.3843118999993749,None,,,,,,,,,,sub-008,001,2026-01-28_17h17.09.558,NESC3137_EEG_experiment,,2025.1.1,60.15138901627077,2026-01-28 17h17.26.597412 -0400,
120,0,120,up,None,0.39734859999953187,None,,,120,0,120,0,162.69206610000037,,,,,,,,,,,,,,,,,,,,162.67616169999928,162.69206610000037,163.49160759999904,163.4752701999987,1,163.47748649999994,163.49160759999904,163.49160759999904,163.99244999999974,163.99244999999974,163.97524650000014,up,163.97530209999968,163.97531929999968,None,0.39734859999953187,None,,,,,,,,,,sub-008,001,2026-01-28_17h17.09.558,NESC3137_EEG_experiment,,2025.1.1,60.15138901627077,2026-01-28 17h17.26.597412 -0400,
121,0,121,down,None,0.396720999999161,None,,,121,0,121,0,163.99244999999974,,,,,,,,,,,,,,,,,,,,163.97545600000012,163.99244999999974,164.85957049999888,164.8423019999991,2,164.84548709999945,164.85957049999888,164.85957049999888,,,165.35858109999936,down,165.3586467999994,165.35868039999878,None,0.396720999999161,None,,,,,,,,,,sub-008,001,2026-01-28_17h17.09.558,NESC3137_EEG_experiment,,2025.1.1,60.15138901627077,2026-01-28 17h17.26.597412 -0400,
122,0,122,up,None,0.4338489000001573,None,,,122,0,122,0,165.3754016999992,,,,,,,,,,,,,,,,,,,,165.3588691999994,165.3754016999992,165.94240639999953,165.92548279999937,1,165.92795259999912,165.94240639999953,165.94240639999953,166.4418902999987,166.4418902999987,166.42530719999922,up,166.42536649999965,166.42539829999987,None,0.4338489000001573,None,,,,,,,,,,sub-008,001,2026-01-28_17h17.09.558,NESC3137_EEG_experiment,,2025.1.1,60.15138901627077,2026-01-28 17h17.26.597412 -0400,
123,0,123,up,None,0.38212190000012924,None,,,123,0,123,0,166.4418902999987,,,,,,,,,,,,,,,,,,,,166.42558839999947,166.4418902999987,167.24217259999932,167.22561779999887,1,167.22783759999948,167.24217259999932,167.24217259999932,,,167.72632329999942,up,167.72639009999875,167.72641320000002,None,0.38212190000012924,None,,,,,,,,,,sub-008,001,2026-01-28_17h17.09.558,NESC3137_EEG_experiment,,2025.1.1,60.15138901627077,2026-01-28 17h17.26.597412 -0400,
124,0,124,down,None,0.4112456000002567,None,,,124,0,124,0,167.7419020999987,,,,,,,,,,,,,,,,,,,,167.72659489999933,167.7419020999987,168.72502939999868,168.70934579999994,2,168.71223219999956,168.72502939999868,168.72502939999868,169.22550079999928,169.22550079999928,169.20929849999993,down,169.20936119999897,169.20939299999918,None,0.4112456000002567,None,,,,,,,,,,sub-008,001,2026-01-28_17h17.09.558,NESC3137_EEG_experiment,,2025.1.1,60.15138901627077,2026-01-28 17h17.26.597412 -0400,
125,0,125,up,None,0.4159717999991699,None,,,125,0,125,0,169.22550079999928,,,,,,,,,,,,,,,,,,,,169.20957989999988,169.22550079999928,169.79238739999892,169.7751963999999,1,169.77801759999966,169.79238739999892,169.79238739999892,,,170.27559680000013,up,170.27567049999925,170.2757036999992,None,0.4159717999991699,None,,,,,,,,,,sub-008,001,2026-01-28_17h17.09.558,NESC3137_EEG_experiment,,2025.1.1,60.15138901627077,2026-01-28 17h17.26.597412 -0400,
126,0,126,None,None,,,,,126,0,126,0,170.29228019999937,,,,,,,,,,,,,,,,,,,,170.27595110000038,170.29228019999937,170.95829669999875,170.9427555000002,1,170.94661689999884,170.95829669999875,170.95829669999875,,,171.44302459999926,None,171.44307060000028,171.4430988999993,None,,,,,,,,,,,,sub-008,001,2026-01-28_17h17.09.558,NESC3137_EEG_experiment,,2025.1.1,60.15138901627077,2026-01-28 17h17.26.597412 -0400,
127,0,127,up,None,0.4099389000002702,None,,,127,0,127,0,171.45823269999892,,,,,,,,,,,,,,,,,,,,171.44329339999967,171.45823269999892,172.15856480000002,172.14263849999952,1,172.14535590000014,172.15856480000002,172.15856480000002,172.6587466000001,172.6587466000001,172.64251179999883,up,172.64256129999922,172.64257969999926,None,0.4099389000002702,None,,,,,,,,,,sub-008,001,2026-01-28_17h17.09.558,NESC3137_EEG_experiment,,2025.1.1,60.15138901627077,2026-01-28 17h17.26.597412 -0400,
128,0,128,up,None,0.4118434000010893,None,,,128,0,128,0,172.6587466000001,,,,,,,,,,,,,,,,,,,,172.64274320000004,172.6587466000001,173.49253529999987,173.47562149999976,1,173.4783587999991,173.49253529999987,173.49253529999987,,,173.9758585999989,up,173.97593909999887,173.9759729999987,None,0.4118434000010893,None,,,,,,,,,,sub-008,001,2026-01-28_17h17.09.558,NESC3137_EEG_experiment,,2025.1.1,60.15138901627077,2026-01-28 17h17.26.597412 -0400,
129,0,129,up,None,0.38663869999982126,None,,,129,0,129,0,173.99231419999887,,,,,,,,,,,,,,,,,,,,173.97621139999865,173.99231419999887,174.5258763999991,174.50901759999942,1,174.51110530000005,174.5258763999991,174.5258763999991,175.02516579999974,175.02516579999974,175.00913729999957,up,175.0092136000003,175.00925629999983,None,0.38663869999982126,None,,,,,,,,,,sub-008,001,2026-01-28_17h17.09.558,NESC3137_EEG_experiment,,2025.1.1,60.15138901627077,2026-01-28 17h17.26.597412 -0400,
130,0,130,up,None,0.3964085999996314,None,,,130,0,130,0,175.02516579999974,,,,,,,,,,,,,,,,,,,,175.00950170000033,175.02516579999974,175.8759704999993,175.85868069999924,1,175.8616994999993,175.8759704999993,175.8759704999993,,,176.35898269999961,up,176.35903299999882,176.3590538999997,None,0.3964085999996314,None,,,,,,,,,,sub-008,001,2026-01-28_17h17.09.558,NESC3137_EEG_experiment,,2025.1.1,60.15138901627077,2026-01-28 17h17.26.597412 -0400,
131,0,131,up,None,0.3707216000002518,None,,,131,0,131,0,176.37553709999884,,,,,,,,,,,,,,,,,,,,176.35919339999964,176.37553709999884,177.12555819999943,177.10866879999958,1,177.11132129999896,177.12555819999943,177.12555819999943,177.62545130000035,177.62545130000035,177.60882289999972,up,177.60887729999922,177.60889549999956,None,0.3707216000002518,None,,,,,,,,,,sub-008,001,2026-01-28_17h17.09.558,NESC3137_EEG_experiment,,2025.1.1,60.15138901627077,2026-01-28 17h17.26.597412 -0400,
132,0,132,up,None,0.37803600000006554,None,,,132,0,132,0,177.62545130000035,,,,,,,,,,,,,,,,,,,,177.60902039999928,177.62545130000035,178.37555669999892,178.35943210000005,1,178.3616248999988,178.37555669999892,178.37555669999892,,,178.86001550000037,up,178.86008479999873,178.86011789999975,None,0.37803600000006554,None,,,,,,,,,,sub-008,001,2026-01-28_17h17.09.558,NESC3137_EEG_experiment,,2025.1.1,60.15138901627077,2026-01-28 17h17.26.597412 -0400,
133,0,133,up,None,0.3576364000000467,None,,,133,0,133,0,178.87568379999902,,,,,,,,,,,,,,,,,,,,178.8603224999988,178.87568379999902,179.45870959999957,179.4426129000003,1,179.44530499999928,179.45870959999957,179.45870959999957,179.9590105999996,179.9590105999996,179.9421308000001,up,179.9421960999989,179.94222660000014,None,0.3576364000000467,None,,,,,,,,,,sub-008,001,2026-01-28_17h17.09.558,NESC3137_EEG_experiment,,2025.1.1,60.15138901627077,2026-01-28 17h17.26.597412 -0400,
134,0,134,up,None,0.37778459999935876,None,,,134,0,134,0,179.9590105999996,,,,,,,,,,,,,,,,,,,,179.94235339999977,179.9590105999996,180.75857220000034,180.74222199999895,1,180.74544799999967,180.75857220000034,180.75857220000034,181.25811710000016,181.25811710000016,181.24205579999943,up,181.24211680000008,181.24214579999898,None,0.37778459999935876,None,,,,,,,,,,sub-008,001,2026-01-28_17h17.09.558,NESC3137_EEG_experiment,,2025.1.1,60.15138901627077,2026-01-28 17h17.26.597412 -0400,
135,0,135,down,None,0.4472838000001502,None,,,135,0,135,0,181.25811710000016,,,,,,,,,,,,,,,,,,,,181.2423203999988,181.25811710000016,182.0089614999997,181.99267510000027,2,181.99532550000004,182.0089614999997,182.0089614999997,182.50855930000034,182.50855930000034,182.49240399999871,down,182.49246179999864,182.49249229999987,None,0.4472838000001502,None,,,,,,,,,,sub-008,001,2026-01-28_17h17.09.558,NESC3137_EEG_experiment,,2025.1.1,60.15138901627077,2026-01-28 17h17.26.597412 -0400,
136,0,136,down,None,0.3172413000011147,0.11987839999892458,,,136,0,136,0,182.50855930000034,,,,,,,,,,,,,,,,,,,,182.49270520000027,182.50855930000034,183.4752626999998,183.4584894999989,2,183.46101049999925,183.4752626999998,183.4752626999998,,,183.95924679999916,down,183.95932809999977,183.95936830000028,None,0.3172413000011147,0.11987839999892458,,,,,,,,,,sub-008,001,2026-01-28_17h17.09.558,NESC3137_EEG_experiment,,2025.1.1,60.15138901627077,2026-01-28 17h17.26.597412 -0400,
137,0,137,down,None,0.37126089999947,None,,,137,0,137,0,183.97508050000033,,,,,,,,,,,,,,,,,,,,183.95958059999975,183.97508050000033,184.52505219999875,184.50829539999904,2,184.51098679999996,184.52505219999875,184.52505219999875,,,185.01006269999925,down,185.0101416999987,185.01016960000015,None,0.37126089999947,None,,,,,,,,,,sub-008,001,2026-01-28_17h17.09.558,NESC3137_EEG_experiment,,2025.1.1,60.15138901627077,2026-01-28 17h17.26.597412 -0400,
138,0,138,up,None,0.4008203000012145,None,,,138,0,138,0,185.02523709999878,,,,,,,,,,,,,,,,,,,,185.01033789999929,185.02523709999878,185.57558479999898,185.55953289999889,1,185.5619057999993,185.57558479999898,185.57558479999898,186.0756913999994,186.0756913999994,186.05866129999959,up,186.0587371999991,186.05877130000044,None,0.4008203000012145,None,,,,,,,,,,sub-008,001,2026-01-28_17h17.09.558,NESC3137_EEG_experiment,,2025.1.1,60.15138901627077,2026-01-28 17h17.26.597412 -0400,
139,0,139,down,None,0.4220294000006106,None,,,139,0,139,0,186.0756913999994,,,,,,,,,,,,,,,,,,,,186.058995899999,186.0756913999994,186.67487470000015,186.65873749999992,2,186.66083669999898,186.67487470000015,186.67487470000015,,,187.15913059999912,down,187.15921609999896,187.1592528000001,None,0.4220294000006106,None,,,,,,,,,,sub-008,001,2026-01-28_17h17.09.558,NESC3137_EEG_experiment,,2025.1.1,60.15138901627077,2026-01-28 17h17.26.597412 -0400,
140,0,140,up,None,0.36746169999969425,None,,,140,0,140,0,187.17524570000023,,,,,,,,,,,,,,,,,,,,187.15947179999966,187.17524570000023,188.00881239999944,187.99307169999884,1,187.9960804000002,188.00881239999944,188.00881239999944,188.5085650000001,188.5085650000001,188.49275750000015,up,188.49281019999944,188.49283730000025,None,0.36746169999969425,None,,,,,,,,,,sub-008,001,2026-01-28_17h17.09.558,NESC3137_EEG_experiment,,2025.1.1,60.15138901627077,2026-01-28 17h17.26.597412 -0400,
141,0,141,up,None,0.341935000000376,0.08014550000007148,,,141,0,141,0,188.5085650000001,,,,,,,,,,,,,,,,,,,,188.4930113999999,188.5085650000001,189.04231579999941,189.0251188000002,2,189.0280127999995,189.04231579999941,189.04231579999941,,,189.52533380000023,up,189.52539109999998,189.52541969999947,None,0.341935000000376,0.08014550000007148,,,,,,,,,,sub-008,001,2026-01-28_17h17.09.558,NESC3137_EEG_experiment,,2025.1.1,60.15138901627077,2026-01-28 17h17.26.597412 -0400,
142,0,142,down,None,0.38998520000131975,None,,,142,0,142,0,189.5418185999988,,,,,,,,,,,,,,,,,,,,189.52555949999987,189.5418185999988,190.24229519999972,190.22517700000026,2,190.227811499999,190.24229519999972,190.24229519999972,190.74159709999913,190.74159709999913,190.72510049999983,down,190.72516189999988,190.72519300000022,None,0.38998520000131975,None,,,,,,,,,,sub-008,001,2026-01-28_17h17.09.558,NESC3137_EEG_experiment,,2025.1.1,60.15138901627077,2026-01-28 17h17.26.597412 -0400,
143,0,143,up,None,0.39822170000115875,None,,,143,0,143,0,190.74159709999913,,,,,,,,,,,,,,,,,,,,190.72536219999893,190.74159709999913,191.4421266999998,191.42556969999896,1,191.4282762999992,191.4421266999998,191.4421266999998,,,191.92576430000008,up,191.92583550000018,191.92586870000014,None,0.39822170000115875,None,,,,,,,,,,sub-008,001,2026-01-28_17h17.09.558,NESC3137_EEG_experiment,,2025.1.1,60.15138901627077,2026-01-28 17h17.26.597412 -0400,
144,0,144,down,None,0.3901855999993131,None,,,144,0,144,0,191.94177610000042,,,,,,,,,,,,,,,,,,,,191.92606559999876,191.94177610000042,192.64221179999913,192.6256967999998,2,192.627855499999,192.64221179999913,192.64221179999913,193.1420949000003,193.1420949000003,193.12606739999865,down,193.12614009999925,193.12616199999866,None,0.3901855999993131,None,,,,,,,,,,sub-008,001,2026-01-28_17h17.09.558,NESC3137_EEG_experiment,,2025.1.1,60.15138901627077,2026-01-28 17h17.26.597412 -0400,
145,0,145,down,None,0.3363093999996636,0.11995519999982207,,,145,0,145,0,193.1420949000003,,,,,,,,,,,,,,,,,,,,193.12640519999877,193.1420949000003,193.97595739999997,193.95923140000014,2,193.96151139999893,193.97595739999997,193.97595739999997,194.47522609999942,194.47522609999942,194.45897669999977,down,194.4590434999991,194.4590793999996,None,0.3363093999996636,0.11995519999982207,,,,,,,,,,sub-008,001,2026-01-28_17h17.09.558,NESC3137_EEG_experiment,,2025.1.1,60.15138901627077,2026-01-28 17h17.26.597412 -0400,
146,0,146,up,None,0.3651722999984486,None,,,146,0,146,0,194.47522609999942,,,,,,,,,,,,,,,,,,,,194.45925279999938,194.47522609999942,195.27510799999982,195.25935339999887,1,195.26270320000003,195.27510799999982,195.27510799999982,195.77535890000036,195.77535890000036,195.7585392000001,up,195.75860029999967,195.75862959999904,None,0.3651722999984486,None,,,,,,,,,,sub-008,001,2026-01-28_17h17.09.558,NESC3137_EEG_experiment,,2025.1.1,60.15138901627077,2026-01-28 17h17.26.597412 -0400,
147,0,147,down,None,0.4068451000002824,None,,,147,0,147,0,195.77535890000036,,,,,,,,,,,,,,,,,,,,195.75882049999927,195.77535890000036,196.6414735999988,196.6255868999997,2,196.62810589999935,196.6414735999988,196.6414735999988,197.1423080000004,197.1423080000004,197.1256271000002,down,197.12568279999869,197.12570159999996,None,0.4068451000002824,None,,,,,,,,,,sub-008,001,2026-01-28_17h17.09.558,NESC3137_EEG_experiment,,2025.1.1,60.15138901627077,2026-01-28 17h17.26.597412 -0400,
148,0,148,up,None,0.3732414999994944,None,,,148,0,148,0,197.1423080000004,,,,,,,,,,,,,,,,,,,,197.1258574000003,197.1423080000004,198.04301569999916,198.02600170000005,1,198.02880539999933,198.04301569999916,198.04301569999916,198.54204169999866,198.54204169999866,198.52574920000006,up,198.52580579999994,198.5258345000002,None,0.3732414999994944,None,,,,,,,,,,sub-008,001,2026-01-28_17h17.09.558,NESC3137_EEG_experiment,,2025.1.1,60.15138901627077,2026-01-28 17h17.26.597412 -0400,
149,0,149,up,None,0.364753900001233,None,,,149,0,149,0,198.54204169999866,,,,,,,,,,,,,,,,,,,,198.52602429999934,198.54204169999866,199.27560989999984,199.25954119999915,1,199.26222579999921,199.27560989999984,199.27560989999984,199.77482930000042,199.77482930000042,199.75878939999893,up,199.75885159999962,199.75888269999996,None,0.364753900001233,None,,,,,,,,,,sub-008,001,2026-01-28_17h17.09.558,NESC3137_EEG_experiment,,2025.1.1,60.15138901627077,2026-01-28 17h17.26.597412 -0400,
150,0,150,up,None,0.3661448000002565,None,,,150,0,150,0,199.77482930000042,,,,,,,,,,,,,,,,,,,,199.7590702999987,199.77482930000042,200.64233009999953,200.6258453999999,1,200.62806529999943,200.64233009999953,200.64233009999953,201.1421395999987,201.1421395999987,201.1251016999995,up,201.1251616999998,201.12519129999964,None,0.3661448000002565,None,,,,,,,,,,sub-008,001,2026-01-28_17h17.09.558,NESC3137_EEG_experiment,,2025.1.1,60.15138901627077,2026-01-28 17h17.26.597412 -0400,
151,0,151,up,None,0.3315070000007836,0.12025119999998424,,,151,0,151,0,201.1421395999987,,,,,,,,,,,,,,,,,,,,201.1253818999994,201.1421395999987,201.9088144999987,201.89269929999864,1,201.89545749999888,201.9088144999987,201.9088144999987,202.40889339999922,202.40889339999922,202.39248909999878,up,202.39255299999968,202.39258390000032,None,0.3315070000007836,0.12025119999998424,,,,,,,,,,sub-008,001,2026-01-28_17h17.09.558,NESC3137_EEG_experiment,,2025.1.1,60.15138901627077,2026-01-28 17h17.26.597412 -0400,
152,0,152,down,None,0.41986980000001495,None,,,152,0,152,0,202.40889339999922,,,,,,,,,,,,,,,,,,,,202.39275819999966,202.40889339999922,203.29245420000007,203.27580169999965,1,203.27890279999883,203.29245420000007,203.29245420000007,,,203.7760206999992,down,203.77609819999998,203.77613139999994,None,0.41986980000001495,None,,,,,,,,,,sub-008,001,2026-01-28_17h17.09.558,NESC3137_EEG_experiment,,2025.1.1,60.15138901627077,2026-01-28 17h17.26.597412 -0400,
153,0,153,down,None,0.45534029999907943,None,,,153,0,153,0,203.7920935000002,,,,,,,,,,,,,,,,,,,,203.7763670000004,203.7920935000002,204.4248678999993,204.40846020000026,2,204.4107910999992,204.4248678999993,204.4248678999993,204.92504199999894,204.92504199999894,204.9084282999993,down,204.90848619999997,204.9085157999998,None,0.45534029999907943,None,,,,,,,,,,sub-008,001,2026-01-28_17h17.09.558,NESC3137_EEG_experiment,,2025.1.1,60.15138901627077,2026-01-28 17h17.26.597412 -0400,
154,0,154,down,None,0.45892340000136755,None,,,154,0,154,0,204.92504199999894,,,,,,,,,,,,,,,,,,,,204.90865080000003,204.92504199999894,205.74143699999877,205.7251273999991,2,205.72758259999864,205.74143699999877,205.74143699999877,206.24232019999909,206.24232019999909,206.2251966999993,down,206.2252757999995,206.22530480000023,None,0.45892340000136755,None,,,,,,,,,,sub-008,001,2026-01-28_17h17.09.558,NESC3137_EEG_experiment,,2025.1.1,60.15138901627077,2026-01-28 17h17.26.597412 -0400,
155,0,155,down,None,0.3937967000001663,None,,,155,0,155,0,206.24232019999909,,,,,,,,,,,,,,,,,,,,206.22550509999928,206.24232019999909,207.14245579999988,207.12518499999896,2,207.1276187000003,207.14245579999988,207.14245579999988,,,207.62538010000026,down,207.62546359999942,207.625503199999,None,0.3937967000001663,None,,,,,,,,,,sub-008,001,2026-01-28_17h17.09.558,NESC3137_EEG_experiment,,2025.1.1,60.15138901627077,2026-01-28 17h17.26.597412 -0400,
156,0,156,None,None,,,,,156,0,156,0,207.64200569999957,,,,,,,,,,,,,,,,,,,,207.6257162999991,207.64200569999957,208.25860069999908,208.24235039999985,1,208.2446874999987,208.25860069999908,208.25860069999908,208.7587395999999,208.7587395999999,208.74233379999896,None,208.74240089999876,208.7424293999993,None,,,,,,,,,,,,sub-008,001,2026-01-28_17h17.09.558,NESC3137_EEG_experiment,,2025.1.1,60.15138901627077,2026-01-28 17h17.26.597412 -0400,
157,0,157,None,None,,,,,157,0,157,0,208.7587395999999,,,,,,,,,,,,,,,,,,,,208.7426233999995,208.7587395999999,209.57508589999998,209.55836979999913,1,209.56073230000038,209.57508589999998,209.57508589999998,,,210.05884630000037,None,210.05890100000033,210.0589351999988,None,,,,,,,,,,,,sub-008,001,2026-01-28_17h17.09.558,NESC3137_EEG_experiment,,2025.1.1,60.15138901627077,2026-01-28 17h17.26.597412 -0400,
158,0,158,up,None,0.39726709999922605,None,,,158,0,158,0,210.07579369999985,,,,,,,,,,,,,,,,,,,,210.05915129999994,210.07579369999985,210.87504239999907,210.8584205999996,1,210.860885099999,210.87504239999907,210.87504239999907,211.37547079999968,211.37547079999968,211.35866129999886,up,211.35873569999967,211.35876649999955,None,0.39726709999922605,None,,,,,,,,,,sub-008,001,2026-01-28_17h17.09.558,NESC3137_EEG_experiment,,2025.1.1,60.15138901627077,2026-01-28 17h17.26.597412 -0400,
159,0,159,down,None,0.420334800001001,None,,,159,0,159,0,211.37547079999968,,,,,,,,,,,,,,,,,,,,211.35894349999944,211.37547079999968,211.89201119999962,211.87501630000042,2,211.87781679999898,211.89201119999962,211.89201119999962,,,212.37594100000024,down,212.37601170000016,212.37603630000012,None,0.420334800001001,None,,,,,,,,,,sub-008,001,2026-01-28_17h17.09.558,NESC3137_EEG_experiment,,2025.1.1,60.15138901627077,2026-01-28 17h17.26.597412 -0400,
160,0,160,up,None,0.34538749999956053,None,,,160,0,160,0,212.39217999999892,,,,,,,,,,,,,,,,,,,,212.3762332999995,212.39217999999892,213.3751572000001,213.35904800000026,1,213.3615977999998,213.3751572000001,213.3751572000001,213.87500369999907,213.87500369999907,213.8585157999987,up,213.85856909999893,213.8585965000002,None,0.34538749999956053,None,,,,,,,,,,sub-008,001,2026-01-28_17h17.09.558,NESC3137_EEG_experiment,,2025.1.1,60.15138901627077,2026-01-28 17h17.26.597412 -0400,
161,0,161,None,None,,,,,161,0,161,0,213.87500369999907,,,,,,,,,,,,,,,,,,,,213.85875789999955,213.87500369999907,214.758195299999,214.74176839999927,2,214.7439648999989,214.758195299999,214.758195299999,,,215.2431362999996,None,215.24322679999932,215.24326759999894,None,,,,,,,,,,,,sub-008,001,2026-01-28_17h17.09.558,NESC3137_EEG_experiment,,2025.1.1,60.15138901627077,2026-01-28 17h17.26.597412 -0400,
162,0,162,down,None,0.3983762999996543,None,,,162,0,162,0,215.25873870000032,,,,,,,,,,,,,,,,,,,,215.2434661999996,215.25873870000032,216.02596859999903,216.0087825999999,2,216.01087019999977,216.02596859999903,216.02596859999903,216.52483609999945,216.52483609999945,216.50877279999986,down,216.50883889999932,216.5088715999991,None,0.3983762999996543,None,,,,,,,,,,sub-008,001,2026-01-28_17h17.09.558,NESC3137_EEG_experiment,,2025.1.1,60.15138901627077,2026-01-28 17h17.26.597412 -0400,
163,0,163,up,None,0.43869770000128483,None,,,163,0,163,0,216.52483609999945,,,,,,,,,,,,,,,,,,,,216.50905989999956,216.52483609999945,217.24160239999946,217.22589209999933,1,217.2285240000001,217.24160239999946,217.24160239999946,217.74147749999975,217.74147749999975,217.7254099999991,up,217.72546519999923,217.72549330000038,None,0.43869770000128483,None,,,,,,,,,,sub-008,001,2026-01-28_17h17.09.558,NESC3137_EEG_experiment,,2025.1.1,60.15138901627077,2026-01-28 17h17.26.597412 -0400,
164,0,164,None,None,,,,,164,0,164,0,217.74147749999975,,,,,,,,,,,,,,,,,,,,217.72566319999896,217.74147749999975,218.29158319999988,218.27594279999903,2,218.2790746999999,218.29158319999988,218.29158319999988,218.792051299999,218.792051299999,218.7755631,None,218.77559979999933,218.77561699999933,None,,,,,,,,,,,,sub-008,001,2026-01-28_17h17.09.558,NESC3137_EEG_experiment,,2025.1.1,60.15138901627077,2026-01-28 17h17.26.597412 -0400,
165,0,165,up,None,0.4487645999997767,None,,,165,0,165,0,218.792051299999,,,,,,,,,,,,,,,,,,,,218.7757447999993,218.792051299999,219.39153189999888,219.37512289999904,1,219.37740909999957,219.39153189999888,219.39153189999888,219.89182230000006,219.89182230000006,219.87506059999941,up,219.87511710000035,219.87514569999985,None,0.4487645999997767,None,,,,,,,,,,sub-008,001,2026-01-28_17h17.09.558,NESC3137_EEG_experiment,,2025.1.1,60.15138901627077,2026-01-28 17h17.26.597412 -0400,
166,0,166,None,None,,,,,166,0,166,0,219.89182230000006,,,,,,,,,,,,,,,,,,,,219.87531829999898,219.89182230000006,220.89201859999957,220.87573239999983,1,220.87784789999932,220.89201859999957,220.89201859999957,221.39169589999983,221.39169589999983,221.3758474999995,None,221.37589219999973,221.37591280000015,None,,,,,,,,,,,,sub-008,001,2026-01-28_17h17.09.558,NESC3137_EEG_experiment,,2025.1.1,60.15138901627077,2026-01-28 17h17.26.597412 -0400,
167,0,167,up,None,0.39394499999980326,None,,,167,0,167,0,221.39169589999983,,,,,,,,,,,,,,,,,,,,221.37606509999932,221.39169589999983,222.14228609999918,222.1260227999992,1,222.12869089999913,222.14228609999918,222.14228609999918,222.64206099999865,222.64206099999865,222.62563339999906,up,222.6256897000003,222.62571690000004,None,0.39394499999980326,None,,,,,,,,,,sub-008,001,2026-01-28_17h17.09.558,NESC3137_EEG_experiment,,2025.1.1,60.15138901627077,2026-01-28 17h17.26.597412 -0400,
168,0,168,None,None,,,,,168,0,168,0,222.64206099999865,,,,,,,,,,,,,,,,,,,,222.62589089999892,222.64206099999865,223.4422627999993,223.42564689999926,2,223.4289571999998,223.4422627999993,223.4422627999993,223.94224779999968,223.94224779999968,223.92579920000026,None,223.92584569999963,223.92586449999908,None,,,,,,,,,,,,sub-008,001,2026-01-28_17h17.09.558,NESC3137_EEG_experiment,,2025.1.1,60.15138901627077,2026-01-28 17h17.26.597412 -0400,
169,0,169,down,None,0.42615269999987504,None,,,169,0,169,0,223.94224779999968,,,,,,,,,,,,,,,,,,,,223.92600759999914,223.94224779999968,224.7582057999989,224.74176219999936,2,224.7441065999992,224.7582057999989,224.7582057999989,,,225.24239619999935,down,225.2424807999996,225.2425160999992,None,0.42615269999987504,None,,,,,,,,,,sub-008,001,2026-01-28_17h17.09.558,NESC3137_EEG_experiment,,2025.1.1,60.15138901627077,2026-01-28 17h17.26.597412 -0400,
170,0,170,down,None,0.4015380999990157,None,,,170,0,170,0,225.25838119999935,,,,,,,,,,,,,,,,,,,,225.24272829999973,225.25838119999935,225.95872659999986,225.94230760000028,2,225.94416319999982,225.95872659999986,225.95872659999986,226.45861870000044,226.45861870000044,226.4423766,down,226.44243089999873,226.44245090000004,None,0.4015380999990157,None,,,,,,,,,,sub-008,001,2026-01-28_17h17.09.558,NESC3137_EEG_experiment,,2025.1.1,60.15138901627077,2026-01-28 17h17.26.597412 -0400,
171,0,171,down,None,0.3518900000017311,0.11208409999926516,,,171,0,171,0,226.45861870000044,,,,,,,,,,,,,,,,,,,,226.44257949999883,226.45861870000044,227.39230829999906,227.3760860000002,2,227.37878719999935,227.39230829999906,227.39230829999906,227.89206569999988,227.89206569999988,227.87568250000004,down,227.87573859999975,227.8757674999997,None,0.3518900000017311,0.11208409999926516,,,,,,,,,,sub-008,001,2026-01-28_17h17.09.558,NESC3137_EEG_experiment,,2025.1.1,60.15138901627077,2026-01-28 17h17.26.597412 -0400,
172,0,172,up,None,0.3964747999998508,None,,,172,0,172,0,227.89206569999988,,,,,,,,,,,,,,,,,,,,227.87594119999994,227.89206569999988,228.47590339999988,228.45901159999994,1,228.4618062999998,228.47590339999988,228.47590339999988,228.97558620000018,228.97558620000018,228.95887140000013,up,228.9589245999996,228.95894229999976,None,0.3964747999998508,None,,,,,,,,,,sub-008,001,2026-01-28_17h17.09.558,NESC3137_EEG_experiment,,2025.1.1,60.15138901627077,2026-01-28 17h17.26.597412 -0400,
173,0,173,up,None,0.353550499999983,None,,,173,0,173,0,228.97558620000018,,,,,,,,,,,,,,,,,,,,228.95919010000034,228.97558620000018,229.5749180999992,229.5583788999993,1,229.5604743999993,229.5749180999992,229.5749180999992,,,230.05904129999908,up,230.05910779999977,230.0591444999991,None,0.353550499999983,None,,,,,,,,,,sub-008,001,2026-01-28_17h17.09.558,NESC3137_EEG_experiment,,2025.1.1,60.15138901627077,2026-01-28 17h17.26.597412 -0400,
174,0,174,up,None,0.3006846000007499,0.1518610000002809,,,174,0,174,0,230.07535519999874,,,,,,,,,,,,,,,,,,,,230.05934999999954,230.07535519999874,230.8598082999997,230.84287589999985,1,230.8457256999991,230.8598082999997,230.8598082999997,231.35882429999947,231.35882429999947,231.34251799999947,up,231.34257569999863,231.34259569999995,None,0.3006846000007499,0.1518610000002809,,,,,,,,,,sub-008,001,2026-01-28_17h17.09.558,NESC3137_EEG_experiment,,2025.1.1,60.15138901627077,2026-01-28 17h17.26.597412 -0400,
175,0,175,down,None,0.3833731999984593,None,,,175,0,175,0,231.35882429999947,,,,,,,,,,,,,,,,,,,,231.34276969999883,231.35882429999947,232.22504649999973,232.2090477999991,2,232.21185960000003,232.22504649999973,232.22504649999973,232.72479199999907,232.72479199999907,232.70838399999957,down,232.70844020000004,232.70846840000013,None,0.3833731999984593,None,,,,,,,,,,sub-008,001,2026-01-28_17h17.09.558,NESC3137_EEG_experiment,,2025.1.1,60.15138901627077,2026-01-28 17h17.26.597412 -0400,
176,0,176,up,None,0.42048670000076527,None,,,176,0,176,0,232.72479199999907,,,,,,,,,,,,,,,,,,,,232.70864079999956,232.72479199999907,233.49167669999952,233.47501389999888,1,233.47713569999905,233.49167669999952,233.49167669999952,,,233.97567009999875,up,233.97574739999982,233.9757912999994,None,0.42048670000076527,None,,,,,,,,,,sub-008,001,2026-01-28_17h17.09.558,NESC3137_EEG_experiment,,2025.1.1,60.15138901627077,2026-01-28 17h17.26.597412 -0400,
177,0,177,None,None,,,,,177,0,177,0,233.99181320000025,,,,,,,,,,,,,,,,,,,,233.9760882999999,233.99181320000025,234.72569309999926,234.7087730000003,1,234.71106829999917,234.72569309999926,234.72569309999926,,,235.2090231000002,None,235.20909709999978,235.20912859999953,None,,,,,,,,,,,,sub-008,001,2026-01-28_17h17.09.558,NESC3137_EEG_experiment,,2025.1.1,60.15138901627077,2026-01-28 17h17.26.597412 -0400,
178,0,178,None,None,,,,,178,0,178,0,235.22541739999906,,,,,,,,,,,,,,,,,,,,235.20937349999986,235.22541739999906,236.0253572999991,236.00911359999918,1,236.01144360000035,236.0253572999991,236.0253572999991,236.52573269999993,236.52573269999993,236.50915619999978,None,236.50920909999877,236.5092378999998,None,,,,,,,,,,,,sub-008,001,2026-01-28_17h17.09.558,NESC3137_EEG_experiment,,2025.1.1,60.15138901627077,2026-01-28 17h17.26.597412 -0400,
179,0,179,down,None,0.4113643000000593,None,,,179,0,179,0,236.52573269999993,,,,,,,,,,,,,,,,,,,,236.50945919999867,236.52573269999993,237.32501090000005,237.30935489999865,2,237.3119143999993,237.32501090000005,237.32501090000005,237.82564189999903,237.82564189999903,237.80915409999943,down,237.8091999999997,237.80921809999927,None,0.4113643000000593,None,,,,,,,,,,sub-008,001,2026-01-28_17h17.09.558,NESC3137_EEG_experiment,,2025.1.1,60.15138901627077,2026-01-28 17h17.26.597412 -0400,
180,0,180,down,None,0.37645680000059656,None,,,180,0,180,0,237.82564189999903,,,,,,,,,,,,,,,,,,,,237.80936629999997,237.82564189999903,238.57583129999875,238.55877949999922,2,238.56179129999873,238.57583129999875,238.57583129999875,239.07513469999867,239.07513469999867,239.05877859999964,down,239.05884289999995,239.05887529999927,None,0.37645680000059656,None,,,,,,,,,,sub-008,001,2026-01-28_17h17.09.558,NESC3137_EEG_experiment,,2025.1.1,60.15138901627077,2026-01-28 17h17.26.597412 -0400,
181,0,181,up,None,0.33699979999983043,0.10408250000000407,,,181,0,181,0,239.07513469999867,,,,,,,,,,,,,,,,,,,,239.05907209999896,239.07513469999867,239.97530579999875,239.9588461000003,1,239.96080619999884,239.97530579999875,239.97530579999875,,,240.4592431000001,up,240.4592929999999,240.45931290000044,None,0.33699979999983043,0.10408250000000407,,,,,,,,,,sub-008,001,2026-01-28_17h17.09.558,NESC3137_EEG_experiment,,2025.1.1,60.15138901627077,2026-01-28 17h17.26.597412 -0400,
182,0,182,down,None,0.40308400000139954,None,,,182,0,182,0,240.4756486999995,,,,,,,,,,,,,,,,,,,,240.45945029999893,240.4756486999995,241.30911430000015,241.29175289999876,2,241.2945886999987,241.30911430000015,241.30911430000015,,,241.7923265999998,down,241.79238579999947,241.79240670000036,None,0.40308400000139954,None,,,,,,,,,,sub-008,001,2026-01-28_17h17.09.558,NESC3137_EEG_experiment,,2025.1.1,60.15138901627077,2026-01-28 17h17.26.597412 -0400,
183,0,183,down,None,0.34934100000100443,0.10407449999911478,,,183,0,183,0,241.8086631999995,,,,,,,,,,,,,,,,,,,,241.7925536999992,241.8086631999995,242.67491549999977,242.65827569999965,2,242.66080320000037,242.67491549999977,242.67491549999977,,,243.1586456999994,down,243.15870489999907,243.15872619999936,None,0.34934100000100443,0.10407449999911478,,,,,,,,,,sub-008,001,2026-01-28_17h17.09.558,NESC3137_EEG_experiment,,2025.1.1,60.15138901627077,2026-01-28 17h17.26.597412 -0400,
184,0,184,None,None,,,,,184,0,184,0,243.17588069999874,,,,,,,,,,,,,,,,,,,,243.15888219999943,243.17588069999874,243.69197089999943,243.67501079999965,1,243.67720290000034,243.69197089999943,243.69197089999943,,,244.17531869999948,None,244.1753721999994,244.17540649999864,None,,,,,,,,,,,,sub-008,001,2026-01-28_17h17.09.558,NESC3137_EEG_experiment,,2025.1.1,60.15138901627077,2026-01-28 17h17.26.597412 -0400,
185,0,185,up,None,0.3672971000014513,None,,,185,0,185,0,244.1917298999997,,,,,,,,,,,,,,,,,,,,244.1755990999991,244.1917298999997,244.82531029999882,244.80850809999902,1,244.81038459999945,244.82531029999882,244.82531029999882,,,245.30894439999975,up,245.30902950000018,245.30906479999976,None,0.3672971000014513,None,,,,,,,,,,sub-008,001,2026-01-28_17h17.09.558,NESC3137_EEG_experiment,,2025.1.1,60.15138901627077,2026-01-28 17h17.26.597412 -0400,
186,0,186,up,None,0.4311529000005976,None,,,186,0,186,0,245.32522889999927,,,,,,,,,,,,,,,,,,,,245.30929389999983,245.32522889999927,246.2091392000002,246.19220490000043,1,246.19451779999872,246.2091392000002,246.2091392000002,246.70876279999902,246.70876279999902,246.69219909999993,up,246.69225899999947,246.6922881999999,None,0.4311529000005976,None,,,,,,,,,,sub-008,001,2026-01-28_17h17.09.558,NESC3137_EEG_experiment,,2025.1.1,60.15138901627077,2026-01-28 17h17.26.597412 -0400,
187,0,187,up,None,0.3475285000004078,0.06395559999873512,,,187,0,187,0,246.70876279999902,,,,,,,,,,,,,,,,,,,,246.69246170000042,246.70876279999902,247.30881769999905,247.29244350000045,2,247.29514009999912,247.30881769999905,247.30881769999905,247.8085332999999,247.8085332999999,247.79237029999967,up,247.79243019999922,247.79246070000045,None,0.3475285000004078,0.06395559999873512,,,,,,,,,,sub-008,001,2026-01-28_17h17.09.558,NESC3137_EEG_experiment,,2025.1.1,60.15138901627077,2026-01-28 17h17.26.597412 -0400,
188,0,188,up,None,0.4051643000002514,None,,,188,0,188,0,247.8085332999999,,,,,,,,,,,,,,,,,,,,247.79269299999942,247.8085332999999,248.6750073000003,248.65967509999973,1,248.6628880999997,248.6750073000003,248.6750073000003,249.1752319999996,249.1752319999996,249.15862329999982,up,249.15872279999894,249.15876529999878,None,0.4051643000002514,None,,,,,,,,,,sub-008,001,2026-01-28_17h17.09.558,NESC3137_EEG_experiment,,2025.1.1,60.15138901627077,2026-01-28 17h17.26.597412 -0400,
189,0,189,down,None,0.4275271000005887,None,,,189,0,189,0,249.1752319999996,,,,,,,,,,,,,,,,,,,,249.15892840000015,249.1752319999996,249.9089544999988,249.89219520000006,2,249.89440979999927,249.9089544999988,249.9089544999988,250.4088109000004,250.4088109000004,250.39234260000012,down,250.39240049999898,250.392425,None,0.4275271000005887,None,,,,,,,,,,sub-008,001,2026-01-28_17h17.09.558,NESC3137_EEG_experiment,,2025.1.1,60.15138901627077,2026-01-28 17h17.26.597412 -0400,
190,0,190,down,None,0.4271184999997786,None,,,190,0,190,0,250.4088109000004,,,,,,,,,,,,,,,,,,,,250.39259839999977,250.4088109000004,250.9251578000003,250.90892449999956,2,250.9116525999998,250.9251578000003,250.9251578000003,251.4256803999997,251.4256803999997,251.40910919999988,down,251.40920039999946,251.40922969999883,None,0.4271184999997786,None,,,,,,,,,,sub-008,001,2026-01-28_17h17.09.558,NESC3137_EEG_experiment,,2025.1.1,60.15138901627077,2026-01-28 17h17.26.597412 -0400,
191,0,191,up,None,0.4412179999999353,None,,,191,0,191,0,251.4256803999997,,,,,,,,,,,,,,,,,,,,251.4094456999992,251.4256803999997,251.99146859999928,251.9749682999991,1,251.97731649999878,251.99146859999928,251.99146859999928,,,252.47534509999969,up,252.4754224999997,252.47545629999877,None,0.4412179999999353,None,,,,,,,,,,sub-008,001,2026-01-28_17h17.09.558,NESC3137_EEG_experiment,,2025.1.1,60.15138901627077,2026-01-28 17h17.26.597412 -0400,
192,0,192,up,None,0.38335879999976896,None,,,192,0,192,0,252.49232289999964,,,,,,,,,,,,,,,,,,,,252.4756851000002,252.49232289999964,253.0089442999997,252.9923910999987,2,252.99470139999903,253.0089442999997,253.0089442999997,253.50884979999864,253.50884979999864,253.49261680000018,up,253.49267150000014,253.49268979999943,None,0.38335879999976896,None,,,,,,,,,,sub-008,001,2026-01-28_17h17.09.558,NESC3137_EEG_experiment,,2025.1.1,60.15138901627077,2026-01-28 17h17.26.597412 -0400,
193,0,193,up,None,0.45551139999952284,None,,,193,0,193,0,253.50884979999864,,,,,,,,,,,,,,,,,,,,253.49282109999876,253.50884979999864,254.20878230000017,254.1917295000003,1,254.19379750000007,254.20878230000017,254.20878230000017,,,254.69249449999916,up,254.69255209999938,254.69258269999955,None,0.45551139999952284,None,,,,,,,,,,sub-008,001,2026-01-28_17h17.09.558,NESC3137_EEG_experiment,,2025.1.1,60.15138901627077,2026-01-28 17h17.26.597412 -0400,
194,0,194,up,None,0.40401380000002973,None,,,194,0,194,0,254.70890320000035,,,,,,,,,,,,,,,,,,,,254.69277359999978,254.70890320000035,255.70819309999933,255.69203409999864,1,255.6944026000001,255.70819309999933,255.70819309999933,256.20809740000004,256.20809740000004,256.1921113999997,up,256.1921719999991,256.1922046999989,None,0.40401380000002973,None,,,,,,,,,,sub-008,001,2026-01-28_17h17.09.558,NESC3137_EEG_experiment,,2025.1.1,60.15138901627077,2026-01-28 17h17.26.597412 -0400,
195,0,195,None,None,,,,,195,0,195,0,256.20809740000004,,,,,,,,,,,,,,,,,,,,256.1923922999995,256.20809740000004,256.92485599999964,256.90874369999983,2,256.9116584000003,256.92485599999964,256.92485599999964,,,257.40890109999964,None,257.40897649999897,257.40901349999876,None,,,,,,,,,,,,sub-008,001,2026-01-28_17h17.09.558,NESC3137_EEG_experiment,,2025.1.1,60.15138901627077,2026-01-28 17h17.26.597412 -0400,
196,0,196,up,None,0.4327136000010796,None,,,196,0,196,0,257.4248845000002,,,,,,,,,,,,,,,,,,,,257.40925570000036,257.4248845000002,257.99162090000027,257.975033499999,1,257.9772522000003,257.99162090000027,257.99162090000027,,,258.47583829999894,up,258.4759213999987,258.4759551999996,None,0.4327136000010796,None,,,,,,,,,,sub-008,001,2026-01-28_17h17.09.558,NESC3137_EEG_experiment,,2025.1.1,60.15138901627077,2026-01-28 17h17.26.597412 -0400,
197,0,197,up,None,0.38333399999828544,None,,,197,0,197,0,258.49161359999925,,,,,,,,,,,,,,,,,,,,258.47615609999957,258.49161359999925,259.4089064999989,259.39245839999967,1,259.3949699999994,259.4089064999989,259.4089064999989,,,259.89281370000026,up,259.89286469999934,259.89288579999993,None,0.38333399999828544,None,,,,,,,,,,sub-008,001,2026-01-28_17h17.09.558,NESC3137_EEG_experiment,,2025.1.1,60.15138901627077,2026-01-28 17h17.26.597412 -0400,
198,0,198,None,None,,,,,198,0,198,0,259.9089289000003,,,,,,,,,,,,,,,,,,,,259.89302999999927,259.9089289000003,260.4922515999988,260.4757441999991,2,260.4782438000002,260.4922515999988,260.4922515999988,,,260.9765697999992,None,260.97665849999976,260.9766882999993,None,,,,,,,,,,,,sub-008,001,2026-01-28_17h17.09.558,NESC3137_EEG_experiment,,2025.1.1,60.15138901627077,2026-01-28 17h17.26.597412 -0400,
199,0,199,up,None,0.40463639999870793,None,,,199,0,199,0,260.9918091999989,,,,,,,,,,,,,,,,,,,,260.97682559999885,260.9918091999989,261.6755500999989,261.65854819999913,1,261.6610753999994,261.6755500999989,261.6755500999989,262.17506440000034,262.17506440000034,262.15848709999955,up,262.1585543000001,262.1585863,None,0.40463639999870793,None,,,,,,,,,,sub-008,001,2026-01-28_17h17.09.558,NESC3137_EEG_experiment,,2025.1.1,60.15138901627077,2026-01-28 17h17.26.597412 -0400,
200,0,200,None,space,,,1.271662799999831,None,200,0,200,0,262.17506440000034,,,,,,,,,,,,,,,,,,,,262.15878449999946,262.17506440000034,262.7088229000001,262.6927416999988,2,262.69566809999924,262.7088229000001,262.7088229000001,263.20874209999965,263.20874209999965,263.1922913999988,None,263.19234440000037,294.49236819999896,space,,,263.20874209999965,293.20882379999966,293.20882379999966,293.20882379999966,1.271662799999831,None,,,,sub-008,001,2026-01-28_17h17.09.558,NESC3137_EEG_experiment,,2025.1.1,60.15138901627077,2026-01-28 17h17.26.597412 -0400,
201,0,201,None,None,,,,,201,0,201,0,294.50886790000004,,,,,,,,,,,,,,,,,,,,294.49250419999953,294.50886790000004,295.35856090000016,295.3419359999989,2,295.34407099999953,295.35856090000016,295.35856090000016,,,295.84258109999973,None,295.8426634999996,295.8427015999987,None,,,,,,,,,,,,sub-008,001,2026-01-28_17h17.09.558,NESC3137_EEG_experiment,,2025.1.1,60.15138901627077,2026-01-28 17h17.26.597412 -0400,
202,0,202,down,None,0.3496477999997296,None,,,202,0,202,0,295.85878049999883,,,,,,,,,,,,,,,,,,,,295.84292709999863,295.85878049999883,296.67488479999884,296.65916389999984,2,296.6620703999997,296.67488479999884,296.67488479999884,297.1753375999997,297.1753375999997,297.15894409999964,down,297.15899679999893,297.15902370000003,None,0.3496477999997296,None,,,,,,,,,,sub-008,001,2026-01-28_17h17.09.558,NESC3137_EEG_experiment,,2025.1.1,60.15138901627077,2026-01-28 17h17.26.597412 -0400,
203,0,203,None,None,,,,,203,0,203,0,297.1753375999997,,,,,,,,,,,,,,,,,,,,297.1592234,297.1753375999997,297.9581653999994,297.9431447999996,1,297.9468202999997,297.9581653999994,297.9581653999994,298.4587902000003,298.4587902000003,298.4422823999994,None,298.4423205000003,298.44233929999973,None,,,,,,,,,,,,sub-008,001,2026-01-28_17h17.09.558,NESC3137_EEG_experiment,,2025.1.1,60.15138901627077,2026-01-28 17h17.26.597412 -0400,
204,0,204,up,None,0.3669997999986663,None,,,204,0,204,0,298.4587902000003,,,,,,,,,,,,,,,,,,,,298.44253989999925,298.4587902000003,299.24132929999905,299.225059299999,1,299.2275129999998,299.24132929999905,299.24132929999905,,,299.72572409999884,up,299.72581179999906,299.72584730000017,None,0.3669997999986663,None,,,,,,,,,,sub-008,001,2026-01-28_17h17.09.558,NESC3137_EEG_experiment,,2025.1.1,60.15138901627077,2026-01-28 17h17.26.597412 -0400,
205,0,205,down,None,0.43369089999941934,None,,,205,0,205,0,299.7417656999987,,,,,,,,,,,,,,,,,,,,299.7260650999997,299.7417656999987,300.54245769999943,300.52501909999955,2,300.52780429999984,300.54245769999943,300.54245769999943,,,301.02534679999917,down,301.0254272000002,301.02546599999914,None,0.43369089999941934,None,,,,,,,,,,sub-008,001,2026-01-28_17h17.09.558,NESC3137_EEG_experiment,,2025.1.1,60.15138901627077,2026-01-28 17h17.26.597412 -0400,
206,0,206,down,None,0.3514796999988903,None,,,206,0,206,0,301.0421341000001,,,,,,,,,,,,,,,,,,,,301.0256730000001,301.0421341000001,301.6087497999997,301.59224770000037,2,301.5949198999988,301.6087497999997,301.6087497999997,302.1086725999994,302.1086725999994,302.0922623999995,down,302.09232229999907,302.0923536999999,None,0.3514796999988903,None,,,,,,,,,,sub-008,001,2026-01-28_17h17.09.558,NESC3137_EEG_experiment,,2025.1.1,60.15138901627077,2026-01-28 17h17.26.597412 -0400,
207,0,207,down,None,0.38391330000013113,None,,,207,0,207,0,302.1086725999994,,,,,,,,,,,,,,,,,,,,302.0925344999996,302.1086725999994,302.79222879999907,302.77590149999924,2,302.7787002999994,302.79222879999907,302.79222879999907,303.2919218999996,303.2919218999996,303.2758439999998,down,303.2759014000003,303.27593159999924,None,0.38391330000013113,None,,,,,,,,,,sub-008,001,2026-01-28_17h17.09.558,NESC3137_EEG_experiment,,2025.1.1,60.15138901627077,2026-01-28 17h17.26.597412 -0400,
208,0,208,down,None,0.3715303999997559,None,,,208,0,208,0,303.2919218999996,,,,,,,,,,,,,,,,,,,,303.27618529999927,303.2919218999996,303.9247335,303.9086516999996,2,303.9108770999992,303.9247335,303.9247335,,,304.4088363999999,down,304.40888970000015,304.40890919999947,None,0.3715303999997559,None,,,,,,,,,,sub-008,001,2026-01-28_17h17.09.558,NESC3137_EEG_experiment,,2025.1.1,60.15138901627077,2026-01-28 17h17.26.597412 -0400,
209,0,209,None,None,,,,,209,0,209,0,304.42512129999886,,,,,,,,,,,,,,,,,,,,304.4090610000003,304.42512129999886,305.3585108999996,305.3422598999987,1,305.34464209999896,305.3585108999996,305.3585108999996,305.8590351999992,305.8590351999992,305.84201349999967,None,305.8420704,305.84212709999883,None,,,,,,,,,,,,sub-008,001,2026-01-28_17h17.09.558,NESC3137_EEG_experiment,,2025.1.1,60.15138901627077,2026-01-28 17h17.26.597412 -0400,
