thisN,thisTrialN,thisRepN,key_resp_3.keys,key_resp_4.keys,key_resp_3.rt,key_resp_3.duration,key_resp_4.rt,key_resp_4.duration,trials.thisRepN,trials.thisTrialN,trials.thisN,trials.thisIndex,thisRow.t,notes,lsl_stream.started,lsl_stream.stopped,setup.started,setup.stopped,welcome.started,welcomeimg.started,key_resp.started,welcome.stopped,key_resp.keys,key_resp.rt,key_resp.duration,instruction.started,instructionimg.started,key_resp_2.started,instruction.stopped,key_resp_2.keys,key_resp_2.rt,key_resp_2.duration,fixation.started,cross.started,cross.stopped,fixation.stopped,trigger,face.started,faceStim.started,key_resp_3.started,faceStim.stopped,key_resp_3.stopped,face.stopped,trials.key_resp_3.keys,break_2.started,break_2.stopped,trials.key_resp_4.keys,trials.key_resp_3.rt,trials.key_resp_3.duration,breakimg.started,break2img.started,key_resp_4.started,breakimg.stopped,trials.key_resp_4.rt,trials.key_resp_4.duration,end.started,finish.started,finish.stopped,end.stopped,participant,session,date,expName,expVersion,psychopyVersion,frameRate,expStart,
,,,,,,,,,,,,,,,0.009974100001272745,0.01004010000906419,,,,,,,,,,,,,,,,,,,,,,,,,,,,,,,,,,,,,,,,,,,,006,001,2026-01-21_17h15.16.897,NESC3137_EEG_experiment,,2025.1.1,144.37222624586536,2026-01-21 17h15.35.859043 -0400,
,,,,,,,,,,,,,,,,,0.010061799999675713,0.010080500011099502,,,,,,,,,,,,,,,,,,,,,,,,,,,,,,,,,,,,,,,,,,006,001,2026-01-21_17h15.16.897,NESC3137_EEG_experiment,,2025.1.1,144.37222624586536,2026-01-21 17h15.35.859043 -0400,
,,,,,,,,,,,,,,,,,,,0.0101178000040818,0.020936700006132014,0.020936700006132014,5.945004599998356,space,5.9112221999967005,None,,,,,,,,,,,,,,,,,,,,,,,,,,,,,,,,,,,006,001,2026-01-21_17h15.16.897,NESC3137_EEG_experiment,,2025.1.1,144.37222624586536,2026-01-21 17h15.35.859043 -0400,
,,,,,,,,,,,,,,,,,,,,,,,,,,5.9450345000077505,5.947566100003314,5.947566100003314,10.002278600004502,space,4.048507500003325,None,,,,,,,,,,,,,,,,,,,,,,,,,,,,006,001,2026-01-21_17h15.16.897,NESC3137_EEG_experiment,,2025.1.1,144.37222624586536,2026-01-21 17h15.35.859043 -0400,
0,0,0,None,None,,,,,0,0,0,0,10.008347299997695,,,,,,,,,,,,,,,,,,,,10.004278100008378,10.008347299997695,10.641497500007972,10.63427190000948,2,10.637141700004577,10.641497500007972,10.641497500007972,11.133407400004216,11.133407400004216,11.127552500009187,None,11.127597099999548,11.127626900008181,None,,,,,,,,,,,,,006,001,2026-01-21_17h15.16.897,NESC3137_EEG_experiment,,2025.1.1,144.37222624586536,2026-01-21 17h15.35.859043 -0400,
1,0,1,None,None,,,,,1,0,1,0,11.133407400004216,,,,,,,,,,,,,,,,,,,,11.127792500003125,11.133407400004216,12.015557300008368,12.009221600004821,2,12.012460300000384,12.015557300008368,12.015557300008368,12.508925400004955,12.508925400004955,12.501799200006644,None,12.501835800008848,12.501849899999797,None,,,,,,,,,,,,,006,001,2026-01-21_17h15.16.897,NESC3137_EEG_experiment,,2025.1.1,144.37222624586536,2026-01-21 17h15.35.859043 -0400,
2,0,2,None,None,,,,,2,0,2,0,12.508925400004955,,,,,,,,,,,,,,,,,,,,12.501954200008186,12.508925400004955,13.440760800003773,13.432316799997352,1,13.434752400004072,13.440760800003773,13.440760800003773,13.932736900009331,13.932736900009331,13.927207200002158,None,13.927432600001339,13.927490800007945,None,,,,,,,,,,,,,006,001,2026-01-21_17h15.16.897,NESC3137_EEG_experiment,,2025.1.1,144.37222624586536,2026-01-21 17h15.35.859043 -0400,
3,0,3,None,None,,,,,3,0,3,0,13.932736900009331,,,,,,,,,,,,,,,,,,,,13.927668500007712,13.932736900009331,14.766118500003358,14.758980700004031,1,14.76161050000519,14.766118500003358,14.766118500003358,15.258827400000882,15.258827400000882,15.25333099999989,None,15.253401200010558,15.253432800003793,None,,,,,,,,,,,,,006,001,2026-01-21_17h15.16.897,NESC3137_EEG_experiment,,2025.1.1,144.37222624586536,2026-01-21 17h15.35.859043 -0400,
4,0,4,None,None,,,,,4,0,4,0,15.258827400000882,,,,,,,,,,,,,,,,,,,,15.253606900005252,15.258827400000882,16.169398099998944,16.16263649999746,2,16.165187300008256,16.169398099998944,16.169398099998944,16.662468200011062,16.662468200011062,16.655243000001065,None,16.655281400002423,16.655295600008685,None,,,,,,,,,,,,,006,001,2026-01-21_17h15.16.897,NESC3137_EEG_experiment,,2025.1.1,144.37222624586536,2026-01-21 17h15.35.859043 -0400,
5,0,5,None,None,,,,,5,0,5,0,16.662468200011062,,,,,,,,,,,,,,,,,,,,16.655402500007767,16.662468200011062,17.488802500010934,17.481617800003733,1,17.484843900005217,17.488802500010934,17.488802500010934,17.981633000003058,17.981633000003058,17.975146400000085,None,17.975208000003477,17.975238200000604,None,,,,,,,,,,,,,006,001,2026-01-21_17h15.16.897,NESC3137_EEG_experiment,,2025.1.1,144.37222624586536,2026-01-21 17h15.35.859043 -0400,
6,0,6,None,None,,,,,6,0,6,0,17.981633000003058,,,,,,,,,,,,,,,,,,,,17.97544840000046,17.981633000003058,18.79533090000041,18.787724399997387,2,18.79102309999871,18.79533090000041,18.79533090000041,19.288503800009494,19.288503800009494,19.280858099999023,None,19.28088970000681,19.280904200000805,None,,,,,,,,,,,,,006,001,2026-01-21_17h15.16.897,NESC3137_EEG_experiment,,2025.1.1,144.37222624586536,2026-01-21 17h15.35.859043 -0400,
7,0,7,up,None,0.45476639999833424,None,,,7,0,7,0,19.288503800009494,,,,,,,,,,,,,,,,,,,,19.281058499997016,19.288503800009494,19.87789210000483,19.870962300003157,1,19.873674400005257,19.87789210000483,19.87789210000483,20.371885100001236,20.371885100001236,20.36546100000851,up,20.36551540000073,20.365541600011056,None,0.45476639999833424,None,,,,,,,,,,,006,001,2026-01-21_17h15.16.897,NESC3137_EEG_experiment,,2025.1.1,144.37222624586536,2026-01-21 17h15.35.859043 -0400,
8,0,8,down,None,0.3478317999979481,None,,,8,0,8,0,20.371885100001236,,,,,,,,,,,,,,,,,,,,20.36565010000777,20.371885100001236,21.016718099999707,21.011518900006195,1,21.014356500003487,21.016718099999707,21.016718099999707,21.510411800001748,21.510411800001748,21.50403670000378,down,21.50407370000903,21.504092100003618,None,0.3478317999979481,None,,,,,,,,,,,006,001,2026-01-21_17h15.16.897,NESC3137_EEG_experiment,,2025.1.1,144.37222624586536,2026-01-21 17h15.35.859043 -0400,
9,0,9,None,None,,,,,9,0,9,0,21.510411800001748,,,,,,,,,,,,,,,,,,,,21.50420039999881,21.510411800001748,22.468274700004258,22.461480300000403,2,22.46458340001118,22.468274700004258,22.468274700004258,22.961328300007153,22.961328300007153,22.954980700000306,None,22.955024599999888,22.95505050000793,None,,,,,,,,,,,,,006,001,2026-01-21_17h15.16.897,NESC3137_EEG_experiment,,2025.1.1,144.37222624586536,2026-01-21 17h15.35.859043 -0400,
10,0,10,None,None,,,,,10,0,10,0,22.961328300007153,,,,,,,,,,,,,,,,,,,,22.9552093000093,22.961328300007153,23.87130130000878,23.86458200000925,1,23.867115800007014,23.87130130000878,23.87130130000878,24.365348100007395,24.365348100007395,24.35762940000859,None,24.357660300011048,24.357675100007327,None,,,,,,,,,,,,,006,001,2026-01-21_17h15.16.897,NESC3137_EEG_experiment,,2025.1.1,144.37222624586536,2026-01-21 17h15.35.859043 -0400,
11,0,11,None,None,,,,,11,0,11,0,24.365348100007395,,,,,,,,,,,,,,,,,,,,24.357778200006578,24.365348100007395,25.131405899999663,25.123052599999937,1,25.12938589999976,25.131405899999663,25.131405899999663,25.621433599997545,25.621433599997545,25.615444700000808,None,25.61549960001139,25.615528000009363,None,,,,,,,,,,,,,006,001,2026-01-21_17h15.16.897,NESC3137_EEG_experiment,,2025.1.1,144.37222624586536,2026-01-21 17h15.35.859043 -0400,
12,0,12,None,None,,,,,12,0,12,0,25.621433599997545,,,,,,,,,,,,,,,,,,,,25.615684700009297,25.621433599997545,26.1843460000091,26.177172700001393,1,26.180472500011092,26.1843460000091,26.1843460000091,26.678082200000063,26.678082200000063,26.670444700008375,None,26.670474400001694,26.670489000011003,None,,,,,,,,,,,,,006,001,2026-01-21_17h15.16.897,NESC3137_EEG_experiment,,2025.1.1,144.37222624586536,2026-01-21 17h15.35.859043 -0400,
13,0,13,None,None,,,,,13,0,13,0,26.678082200000063,,,,,,,,,,,,,,,,,,,,26.67059180000797,26.678082200000063,27.184222700001555,27.178148300008615,2,27.180831300007412,27.184222700001555,27.184222700001555,27.677235299997847,27.677235299997847,27.67216250000638,None,27.672197500010952,27.672213500001817,None,,,,,,,,,,,,,006,001,2026-01-21_17h15.16.897,NESC3137_EEG_experiment,,2025.1.1,144.37222624586536,2026-01-21 17h15.35.859043 -0400,
14,0,14,None,None,,,,,14,0,14,0,27.677235299997847,,,,,,,,,,,,,,,,,,,,27.6723226000031,27.677235299997847,28.198046500008786,28.191436000008252,1,28.19413689999783,28.198046500008786,28.198046500008786,28.69170570001006,28.69170570001006,28.684513900007005,None,28.684547400000156,28.684562200010987,None,,,,,,,,,,,,,006,001,2026-01-21_17h15.16.897,NESC3137_EEG_experiment,,2025.1.1,144.37222624586536,2026-01-21 17h15.35.859043 -0400,
15,0,15,up,None,0.38264289998915046,None,,,15,0,15,0,28.69170570001006,,,,,,,,,,,,,,,,,,,,28.68467000000237,28.69170570001006,29.413529299999936,29.407150700004422,1,29.41096649999963,29.413529299999936,29.413529299999936,29.9063707000023,29.9063707000023,29.900004800001625,up,29.900043300003745,29.90005710000696,None,0.38264289998915046,None,,,,,,,,,,,006,001,2026-01-21_17h15.16.897,NESC3137_EEG_experiment,,2025.1.1,144.37222624586536,2026-01-21 17h15.35.859043 -0400,
16,0,16,up,None,0.38348170000244863,None,,,16,0,16,0,29.9063707000023,,,,,,,,,,,,,,,,,,,,29.90016150000156,29.9063707000023,30.420839700003853,30.414291300010518,1,30.418456700004754,30.420839700003853,30.420839700003853,30.913609399998677,30.913609399998677,30.907274600001983,up,30.90731070000038,30.90732550001121,None,0.38348170000244863,None,,,,,,,,,,,006,001,2026-01-21_17h15.16.897,NESC3137_EEG_experiment,,2025.1.1,144.37222624586536,2026-01-21 17h15.35.859043 -0400,
17,0,17,up,None,0.422782499997993,None,,,17,0,17,0,30.913609399998677,,,,,,,,,,,,,,,,,,,,30.907430500010378,30.913609399998677,31.837418600000092,31.830765700011398,1,31.83390940001118,31.837418600000092,31.837418600000092,32.33151150000049,32.33151150000049,32.3243855000037,up,32.32444720000785,32.32446170000185,None,0.422782499997993,None,,,,,,,,,,,006,001,2026-01-21_17h15.16.897,NESC3137_EEG_experiment,,2025.1.1,144.37222624586536,2026-01-21 17h15.35.859043 -0400,
18,0,18,up,None,0.44095040000684094,None,,,18,0,18,0,32.33151150000049,,,,,,,,,,,,,,,,,,,,32.3245670000033,32.33151150000049,33.27511190000223,33.268317300011404,1,33.27148730000772,33.27511190000223,33.27511190000223,33.76852260000305,33.76852260000305,33.761667300001136,up,33.76170260000799,33.76171649999742,None,0.44095040000684094,None,,,,,,,,,,,006,001,2026-01-21_17h15.16.897,NESC3137_EEG_experiment,,2025.1.1,144.37222624586536,2026-01-21 17h15.35.859043 -0400,
19,0,19,up,None,0.3875551999954041,None,,,19,0,19,0,33.76852260000305,,,,,,,,,,,,,,,,,,,,33.76181950001046,33.76852260000305,34.51259769999888,34.50434720001067,1,34.506932200005394,34.51259769999888,34.51259769999888,35.00452020000375,35.00452020000375,34.998712200002046,up,34.998778799999855,34.99879700000747,None,0.3875551999954041,None,,,,,,,,,,,006,001,2026-01-21_17h15.16.897,NESC3137_EEG_experiment,,2025.1.1,144.37222624586536,2026-01-21 17h15.35.859043 -0400,
20,0,20,None,None,,,,,20,0,20,0,35.00452020000375,,,,,,,,,,,,,,,,,,,,34.99895940000715,35.00452020000375,35.65739520000352,35.651047600011225,2,35.65442820001044,35.65739520000352,35.65739520000352,36.15142520000518,36.15142520000518,36.143695500009926,None,36.143742900007055,36.14376990000892,None,,,,,,,,,,,,,006,001,2026-01-21_17h15.16.897,NESC3137_EEG_experiment,,2025.1.1,144.37222624586536,2026-01-21 17h15.35.859043 -0400,
21,0,21,None,None,,,,,21,0,21,0,36.15142520000518,,,,,,,,,,,,,,,,,,,,36.143929700003355,36.15142520000518,37.08862090000184,37.08139590000792,1,37.08387240000593,37.08862090000184,37.08862090000184,37.58252399999765,37.58252399999765,37.57454420000431,None,37.574574199999915,37.5745886000077,None,,,,,,,,,,,,,006,001,2026-01-21_17h15.16.897,NESC3137_EEG_experiment,,2025.1.1,144.37222624586536,2026-01-21 17h15.35.859043 -0400,
22,0,22,None,None,,,,,22,0,22,0,37.58252399999765,,,,,,,,,,,,,,,,,,,,37.57469360000687,37.58252399999765,38.353166200002306,38.345409900008235,2,38.348146400006954,38.353166200002306,38.353166200002306,38.84625230000529,38.84625230000529,38.83862429999863,None,38.8386548999988,38.83866960000887,None,,,,,,,,,,,,,006,001,2026-01-21_17h15.16.897,NESC3137_EEG_experiment,,2025.1.1,144.37222624586536,2026-01-21 17h15.35.859043 -0400,
23,0,23,None,None,,,,,23,0,23,0,38.84625230000529,,,,,,,,,,,,,,,,,,,,38.83877349999966,38.84625230000529,39.35926100000506,39.35247179999715,2,39.355598900001496,39.35926100000506,39.35926100000506,39.85243700000865,39.85243700000865,39.84620630000427,None,39.84625909999886,39.84628730000986,None,,,,,,,,,,,,,006,001,2026-01-21_17h15.16.897,NESC3137_EEG_experiment,,2025.1.1,144.37222624586536,2026-01-21 17h15.35.859043 -0400,
24,0,24,None,None,,,,,24,0,24,0,39.85243700000865,,,,,,,,,,,,,,,,,,,,39.846404600000824,39.85243700000865,40.34684920001018,40.339536500003305,1,40.34246379999968,40.34684920001018,40.34684920001018,40.840084900002694,40.840084900002694,40.831998100009514,None,40.83202830000664,40.83204239999759,None,,,,,,,,,,,,,006,001,2026-01-21_17h15.16.897,NESC3137_EEG_experiment,,2025.1.1,144.37222624586536,2026-01-21 17h15.35.859043 -0400,
25,0,25,down,None,0.3854295000055572,None,,,25,0,25,0,40.840084900002694,,,,,,,,,,,,,,,,,,,,40.83214310000767,40.840084900002694,41.33875650000118,41.33201949999784,2,41.33523620000051,41.33875650000118,41.33875650000118,41.83282440000039,41.83282440000039,41.82615700000315,down,41.826192900000024,41.826207000005525,None,0.3854295000055572,None,,,,,,,,,,,006,001,2026-01-21_17h15.16.897,NESC3137_EEG_experiment,,2025.1.1,144.37222624586536,2026-01-21 17h15.35.859043 -0400,
26,0,26,down,None,0.44142390000342857,None,,,26,0,26,0,41.83282440000039,,,,,,,,,,,,,,,,,,,,41.82631140000012,41.83282440000039,42.61093520000577,42.60401940000884,2,42.60641629999736,42.61093520000577,42.61093520000577,43.10306780000974,43.10306780000974,43.09666540000762,down,43.09673840001051,43.09675690000586,None,0.44142390000342857,None,,,,,,,,,,,006,001,2026-01-21_17h15.16.897,NESC3137_EEG_experiment,,2025.1.1,144.37222624586536,2026-01-21 17h15.35.859043 -0400,
27,0,27,None,None,,,,,27,0,27,0,43.10306780000974,,,,,,,,,,,,,,,,,,,,43.09701720000885,43.10306780000974,43.83347569999751,43.82584180000413,1,43.828657400008524,43.83347569999751,43.83347569999751,44.32529649999924,44.32529649999924,44.318458399997326,None,44.318506600000546,44.31852179999987,None,,,,,,,,,,,,,006,001,2026-01-21_17h15.16.897,NESC3137_EEG_experiment,,2025.1.1,144.37222624586536,2026-01-21 17h15.35.859043 -0400,
28,0,28,None,None,,,,,28,0,28,0,44.32529649999924,,,,,,,,,,,,,,,,,,,,44.31862869999895,44.32529649999924,44.866939500003355,44.86146739999822,1,44.864385300010326,44.866939500003355,44.866939500003355,45.36083540000254,45.36083540000254,45.35494610000751,None,45.354977599999984,45.355005700010224,None,,,,,,,,,,,,,006,001,2026-01-21_17h15.16.897,NESC3137_EEG_experiment,,2025.1.1,144.37222624586536,2026-01-21 17h15.35.859043 -0400,
29,0,29,up,None,0.3765508999931626,None,,,29,0,29,0,45.36083540000254,,,,,,,,,,,,,,,,,,,,45.35511270001007,45.36083540000254,45.867504399997415,45.861462700006086,1,45.86543240000901,45.867504399997415,45.867504399997415,46.36026810000476,46.36026810000476,46.35480559999996,up,46.35486180000589,46.354880600003526,None,0.3765508999931626,None,,,,,,,,,,,006,001,2026-01-21_17h15.16.897,NESC3137_EEG_experiment,,2025.1.1,144.37222624586536,2026-01-21 17h15.35.859043 -0400,
30,0,30,None,None,,,,,30,0,30,0,46.36026810000476,,,,,,,,,,,,,,,,,,,,46.355008700003964,46.36026810000476,47.061648000002606,47.05569850000029,2,47.059025499998825,47.061648000002606,47.061648000002606,47.555448400002206,47.555448400002206,47.54865360000986,None,47.54871560000174,47.54874550001114,None,,,,,,,,,,,,,006,001,2026-01-21_17h15.16.897,NESC3137_EEG_experiment,,2025.1.1,144.37222624586536,2026-01-21 17h15.35.859043 -0400,
31,0,31,up,None,0.42213079999783076,None,,,31,0,31,0,47.555448400002206,,,,,,,,,,,,,,,,,,,,47.54894449999847,47.555448400002206,48.11852329999965,48.11185280000791,1,48.115327400009846,48.11852329999965,48.11852329999965,48.61062780000793,48.61062780000793,48.60456810001051,up,48.60463339999842,48.60466740000993,None,0.42213079999783076,None,,,,,,,,,,,006,001,2026-01-21_17h15.16.897,NESC3137_EEG_experiment,,2025.1.1,144.37222624586536,2026-01-21 17h15.35.859043 -0400,
32,0,32,None,None,,,,,32,0,32,0,48.61062780000793,,,,,,,,,,,,,,,,,,,,48.60479630000191,48.61062780000793,49.48603130000993,49.47954120000941,1,49.48252550000325,49.48603130000993,49.48603130000993,49.978969500007224,49.978969500007224,49.971973100007745,None,49.972003600007156,49.97201789999963,None,,,,,,,,,,,,,006,001,2026-01-21_17h15.16.897,NESC3137_EEG_experiment,,2025.1.1,144.37222624586536,2026-01-21 17h15.35.859043 -0400,
33,0,33,None,None,,,,,33,0,33,0,49.978969500007224,,,,,,,,,,,,,,,,,,,,49.97212970000692,49.978969500007224,50.68024060000607,50.674459900008515,2,50.67803080000158,50.68024060000607,50.68024060000607,51.17443500000809,51.17443500000809,51.16695179999806,None,51.16698190000898,51.166996600004495,None,,,,,,,,,,,,,006,001,2026-01-21_17h15.16.897,NESC3137_EEG_experiment,,2025.1.1,144.37222624586536,2026-01-21 17h15.35.859043 -0400,
34,0,34,up,None,0.4137501999939559,None,,,34,0,34,0,51.17443500000809,,,,,,,,,,,,,,,,,,,,51.16713490000984,51.17443500000809,52.062365400008275,52.056348900005105,1,52.0593297000014,52.062365400008275,52.062365400008275,52.555500200003735,52.555500200003735,52.54985710000619,up,52.5498946000007,52.54991020000307,None,0.4137501999939559,None,,,,,,,,,,,006,001,2026-01-21_17h15.16.897,NESC3137_EEG_experiment,,2025.1.1,144.37222624586536,2026-01-21 17h15.35.859043 -0400,
35,0,35,up,None,0.383163999998942,None,,,35,0,35,0,52.555500200003735,,,,,,,,,,,,,,,,,,,,52.55001910000283,52.555500200003735,53.38906030000362,53.38206530000025,1,53.38491530000465,53.38906030000362,53.38906030000362,53.8820521000016,53.8820521000016,53.875874999997905,up,53.875929800007725,53.87595670000883,None,0.383163999998942,None,,,,,,,,,,,006,001,2026-01-21_17h15.16.897,NESC3137_EEG_experiment,,2025.1.1,144.37222624586536,2026-01-21 17h15.35.859043 -0400,
36,0,36,up,None,0.329468200012343,0.14400229998864233,,,36,0,36,0,53.8820521000016,,,,,,,,,,,,,,,,,,,,53.87612240000453,53.8820521000016,54.562541000006604,54.55583120000665,1,54.55862799999886,54.562541000006604,54.562541000006604,55.05616870000085,55.05616870000085,55.04898289999983,up,55.04901919999975,55.04903470000136,None,0.329468200012343,0.14400229998864233,,,,,,,,,,,006,001,2026-01-21_17h15.16.897,NESC3137_EEG_experiment,,2025.1.1,144.37222624586536,2026-01-21 17h15.35.859043 -0400,
37,0,37,up,None,0.38070779999543447,None,,,37,0,37,0,55.05616870000085,,,,,,,,,,,,,,,,,,,,55.04914740000095,55.05616870000085,55.743312200007495,55.73647350000101,1,55.739790600011474,55.743312200007495,55.743312200007495,56.236272800000734,56.236272800000734,56.229726300007314,up,56.22976760000165,56.229781900008675,None,0.38070779999543447,None,,,,,,,,,,,006,001,2026-01-21_17h15.16.897,NESC3137_EEG_experiment,,2025.1.1,144.37222624586536,2026-01-21 17h15.35.859043 -0400,
38,0,38,up,None,0.4344120000023395,None,,,38,0,38,0,56.236272800000734,,,,,,,,,,,,,,,,,,,,56.22988540001097,56.236272800000734,57.09776050000801,57.09227420001116,1,57.09562600000936,57.09776050000801,57.09776050000801,57.59140699999989,57.59140699999989,57.584062000009,up,57.58409930000198,57.584115100005874,None,0.4344120000023395,None,,,,,,,,,,,006,001,2026-01-21_17h15.16.897,NESC3137_EEG_experiment,,2025.1.1,144.37222624586536,2026-01-21 17h15.35.859043 -0400,
39,0,39,None,None,,,,,39,0,39,0,57.59140699999989,,,,,,,,,,,,,,,,,,,,57.58423200000834,57.59140699999989,58.314489099997445,58.30607050000981,2,58.308547300010105,58.314489099997445,58.314489099997445,58.8063633999991,58.8063633999991,58.799289500006125,None,58.799333200004185,58.79936030000681,None,,,,,,,,,,,,,006,001,2026-01-21_17h15.16.897,NESC3137_EEG_experiment,,2025.1.1,144.37222624586536,2026-01-21 17h15.35.859043 -0400,
40,0,40,None,None,,,,,40,0,40,0,58.8063633999991,,,,,,,,,,,,,,,,,,,,58.799520000000484,58.8063633999991,59.325084000010975,59.314551900009974,1,59.322526100004325,59.325084000010975,59.325084000010975,59.82070550000935,59.82070550000935,59.81341100001009,None,59.81344230000104,59.81345630000578,None,,,,,,,,,,,,,006,001,2026-01-21_17h15.16.897,NESC3137_EEG_experiment,,2025.1.1,144.37222624586536,2026-01-21 17h15.35.859043 -0400,
41,0,41,down,None,0.4661270000069635,None,,,41,0,41,0,59.82070550000935,,,,,,,,,,,,,,,,,,,,59.813569200006896,59.82070550000935,60.466059700003825,60.459474000002956,2,60.46294990000024,60.466059700003825,60.466059700003825,60.96051920000173,60.96051920000173,60.95244670000102,down,60.95249390001118,60.952509200011264,None,0.4661270000069635,None,,,,,,,,,,,006,001,2026-01-21_17h15.16.897,NESC3137_EEG_experiment,,2025.1.1,144.37222624586536,2026-01-21 17h15.35.859043 -0400,
42,0,42,down,None,0.4680952999915462,None,,,42,0,42,0,60.96051920000173,,,,,,,,,,,,,,,,,,,,60.952622700002394,60.96051920000173,61.70392610000272,61.695705000005546,2,61.698791300004814,61.70392610000272,61.70392610000272,62.19575060000352,62.19575060000352,62.18889770000533,down,62.18893860001117,62.1889530000044,None,0.4680952999915462,None,,,,,,,,,,,006,001,2026-01-21_17h15.16.897,NESC3137_EEG_experiment,,2025.1.1,144.37222624586536,2026-01-21 17h15.35.859043 -0400,
43,0,43,down,None,0.44561930000782013,None,,,43,0,43,0,62.19575060000352,,,,,,,,,,,,,,,,,,,,62.189061299999594,62.19575060000352,62.96636340000259,62.95969820000755,2,62.96266250000917,62.96636340000259,62.96636340000259,63.46041720001085,63.46041720001085,63.453515900007915,down,63.45355840001139,63.453573899998446,None,0.44561930000782013,None,,,,,,,,,,,006,001,2026-01-21_17h15.16.897,NESC3137_EEG_experiment,,2025.1.1,144.37222624586536,2026-01-21 17h15.35.859043 -0400,
44,0,44,down,None,0.44333939999341965,None,,,44,0,44,0,63.46041720001085,,,,,,,,,,,,,,,,,,,,63.453704300001846,63.46041720001085,64.16100829999777,64.155053399998,2,64.15799310000148,64.16100829999777,64.16100829999777,64.65420920000179,64.65420920000179,64.64853990000847,down,64.64857900000061,64.64859940001043,None,0.44333939999341965,None,,,,,,,,,,,006,001,2026-01-21_17h15.16.897,NESC3137_EEG_experiment,,2025.1.1,144.37222624586536,2026-01-21 17h15.35.859043 -0400,
45,0,45,down,None,0.39242750000266824,None,,,45,0,45,0,64.65420920000179,,,,,,,,,,,,,,,,,,,,64.64871600001061,64.65420920000179,65.57161939999787,65.55712810000114,2,65.56787730001088,65.57161939999787,65.57161939999787,,,66.05916730000172,down,66.05923660000553,66.05925800000841,None,0.39242750000266824,None,,,,,,,,,,,006,001,2026-01-21_17h15.16.897,NESC3137_EEG_experiment,,2025.1.1,144.37222624586536,2026-01-21 17h15.35.859043 -0400,
46,0,46,down,None,0.3791047999984585,None,,,46,0,46,0,66.06463079999958,,,,,,,,,,,,,,,,,,,,66.05944450000243,66.06463079999958,66.8091662000079,66.80174750000879,2,66.80548400001135,66.8091662000079,66.8091662000079,67.30103539999982,67.30103539999982,67.29454509999778,down,67.29458010000235,67.2945946999971,None,0.3791047999984585,None,,,,,,,,,,,006,001,2026-01-21_17h15.16.897,NESC3137_EEG_experiment,,2025.1.1,144.37222624586536,2026-01-21 17h15.35.859043 -0400,
47,0,47,down,None,0.3914109000033932,None,,,47,0,47,0,67.30103539999982,,,,,,,,,,,,,,,,,,,,67.29471040000499,67.30103539999982,67.99655910000729,67.99005300000135,2,67.99432850000449,67.99655910000729,67.99655910000729,68.48906200000783,68.48906200000783,68.48274050001055,down,68.48279049999837,68.48280540000997,None,0.3914109000033932,None,,,,,,,,,,,006,001,2026-01-21_17h15.16.897,NESC3137_EEG_experiment,,2025.1.1,144.37222624586536,2026-01-21 17h15.35.859043 -0400,
48,0,48,down,None,0.4456711999955587,None,,,48,0,48,0,68.48906200000783,,,,,,,,,,,,,,,,,,,,68.48292170000786,68.48906200000783,69.3503641999996,69.34378330000618,2,69.34683550000773,69.3503641999996,69.3503641999996,69.84319400000095,69.84319400000095,69.83774509999785,down,69.8377865000075,69.83780180000758,None,0.4456711999955587,None,,,,,,,,,,,006,001,2026-01-21_17h15.16.897,NESC3137_EEG_experiment,,2025.1.1,144.37222624586536,2026-01-21 17h15.35.859043 -0400,
49,0,49,down,None,0.46706239999912214,None,,,49,0,49,0,69.84319400000095,,,,,,,,,,,,,,,,,,,,69.83791450000717,69.84319400000095,70.55294249999861,70.54617329999746,2,70.54922480000823,70.55294249999861,70.55294249999861,71.04525090000243,71.04525090000243,71.03842609999992,down,71.03849880000053,71.03852840000764,None,0.46706239999912214,None,,,,,,,,,,,006,001,2026-01-21_17h15.16.897,NESC3137_EEG_experiment,,2025.1.1,144.37222624586536,2026-01-21 17h15.35.859043 -0400,
50,0,50,down,None,0.4553460000024643,None,,,50,0,50,0,71.04525090000243,,,,,,,,,,,,,,,,,,,,71.03875269999844,71.04525090000243,71.57263110000349,71.56680600000254,2,71.5702394000109,71.57263110000349,71.57263110000349,72.06668380000337,72.06668380000337,72.06057500001043,down,72.06072200000926,72.06077290000394,None,0.4553460000024643,None,,,,,,,,,,,006,001,2026-01-21_17h15.16.897,NESC3137_EEG_experiment,,2025.1.1,144.37222624586536,2026-01-21 17h15.35.859043 -0400,
51,0,51,down,None,0.3735336000099778,None,,,51,0,51,0,72.06668380000337,,,,,,,,,,,,,,,,,,,,72.06093079999846,72.06668380000337,72.72667960000399,72.71917330000724,2,72.7241006000113,72.72667960000399,72.72667960000399,73.21869480000169,73.21869480000169,73.21326550000231,down,73.21335630000976,73.21337500000664,None,0.3735336000099778,None,,,,,,,,,,,006,001,2026-01-21_17h15.16.897,NESC3137_EEG_experiment,,2025.1.1,144.37222624586536,2026-01-21 17h15.35.859043 -0400,
52,0,52,None,None,,,,,52,0,52,0,73.21869480000169,,,,,,,,,,,,,,,,,,,,73.21353520000412,73.21869480000169,73.95576959999744,73.94810000000871,1,73.9513442000025,73.95576959999744,73.95576959999744,74.44805140000244,74.44805140000244,74.44132979999995,None,74.44137390000105,74.44140090000292,None,,,,,,,,,,,,,006,001,2026-01-21_17h15.16.897,NESC3137_EEG_experiment,,2025.1.1,144.37222624586536,2026-01-21 17h15.35.859043 -0400,
53,0,53,None,None,,,,,53,0,53,0,74.44805140000244,,,,,,,,,,,,,,,,,,,,74.44156300000031,74.44805140000244,75.31619530000899,75.31030850000388,1,75.31322630000068,75.31619530000899,75.31619530000899,75.81035860000702,75.81035860000702,75.80327760000364,None,75.80331250000745,75.80332830001134,None,,,,,,,,,,,,,006,001,2026-01-21_17h15.16.897,NESC3137_EEG_experiment,,2025.1.1,144.37222624586536,2026-01-21 17h15.35.859043 -0400,
54,0,54,None,None,,,,,54,0,54,0,75.81035860000702,,,,,,,,,,,,,,,,,,,,75.80344550000154,75.81035860000702,76.74281700000574,76.73421760000929,2,76.7403362000041,76.74281700000574,76.74281700000574,77.23328710001078,77.23328710001078,77.2265863000066,None,77.22661769999831,77.22663319999992,None,,,,,,,,,,,,,006,001,2026-01-21_17h15.16.897,NESC3137_EEG_experiment,,2025.1.1,144.37222624586536,2026-01-21 17h15.35.859043 -0400,
55,0,55,None,None,,,,,55,0,55,0,77.23328710001078,,,,,,,,,,,,,,,,,,,,77.22674340000958,77.23328710001078,78.01096600000164,78.00510110000323,2,78.00830960000167,78.01096600000164,78.01096600000164,78.50393710000208,78.50393710000208,78.49841410000226,None,78.49844510000548,78.49846030000481,None,,,,,,,,,,,,,006,001,2026-01-21_17h15.16.897,NESC3137_EEG_experiment,,2025.1.1,144.37222624586536,2026-01-21 17h15.35.859043 -0400,
56,0,56,down,None,0.4395152999932179,None,,,56,0,56,0,78.50393710000208,,,,,,,,,,,,,,,,,,,,78.49857390001125,78.50393710000208,79.10843690000183,79.10227360000135,2,79.10556750000978,79.10843690000183,79.10843690000183,79.60153729999729,79.60153729999729,79.59469250000257,down,79.59472770000866,79.59474230000342,None,0.4395152999932179,None,,,,,,,,,,,006,001,2026-01-21_17h15.16.897,NESC3137_EEG_experiment,,2025.1.1,144.37222624586536,2026-01-21 17h15.35.859043 -0400,
57,0,57,None,None,,,,,57,0,57,0,79.60153729999729,,,,,,,,,,,,,,,,,,,,79.59484620000876,79.60153729999729,80.53923450000002,80.53233210000326,1,80.5351825000107,80.53923450000002,80.53923450000002,81.03285719999985,81.03285719999985,81.02655260000029,None,81.02658560000418,81.02660350000951,None,,,,,,,,,,,,,006,001,2026-01-21_17h15.16.897,NESC3137_EEG_experiment,,2025.1.1,144.37222624586536,2026-01-21 17h15.35.859043 -0400,
58,0,58,None,None,,,,,58,0,58,0,81.03285719999985,,,,,,,,,,,,,,,,,,,,81.02672419999726,81.03285719999985,81.7377991000103,81.73293150000973,2,81.73586860000796,81.7377991000103,81.7377991000103,82.23279090000142,82.23279090000142,82.2264933000115,None,82.22652740000922,82.22654210000474,None,,,,,,,,,,,,,006,001,2026-01-21_17h15.16.897,NESC3137_EEG_experiment,,2025.1.1,144.37222624586536,2026-01-21 17h15.35.859043 -0400,
59,0,59,up,None,0.41535080000176094,None,,,59,0,59,0,82.23279090000142,,,,,,,,,,,,,,,,,,,,82.22664819999773,82.23279090000142,82.99685779999709,82.99013510000077,1,82.99361109999882,82.99685779999709,82.99685779999709,83.48998630000278,83.48998630000278,83.4844010000088,up,83.48443979999865,83.48445509999874,None,0.41535080000176094,None,,,,,,,,,,,006,001,2026-01-21_17h15.16.897,NESC3137_EEG_experiment,,2025.1.1,144.37222624586536,2026-01-21 17h15.35.859043 -0400,
60,0,60,up,None,0.42621399999188725,None,,,60,0,60,0,83.48998630000278,,,,,,,,,,,,,,,,,,,,83.48456880000595,83.48998630000278,84.28181010000117,84.27603780000936,1,84.27987179999764,84.28181010000117,84.28181010000117,84.77492609999899,84.77492609999899,84.76863659999799,up,84.7686798000068,84.76869470000383,None,0.42621399999188725,None,,,,,,,,,,,006,001,2026-01-21_17h15.16.897,NESC3137_EEG_experiment,,2025.1.1,144.37222624586536,2026-01-21 17h15.35.859043 -0400,
61,0,61,up,None,0.3380656999943312,0.12796320000779815,,,61,0,61,0,84.77492609999899,,,,,,,,,,,,,,,,,,,,84.76880320000055,84.77492609999899,85.54611219999788,85.53884340000513,1,85.54164010001114,85.54611219999788,85.54611219999788,86.04042800000752,86.04042800000752,86.03205609999713,up,86.03209600000991,86.03211020000163,None,0.3380656999943312,0.12796320000779815,,,,,,,,,,,006,001,2026-01-21_17h15.16.897,NESC3137_EEG_experiment,,2025.1.1,144.37222624586536,2026-01-21 17h15.35.859043 -0400,
62,0,62,up,None,0.3691874999931315,None,,,62,0,62,0,86.04042800000752,,,,,,,,,,,,,,,,,,,,86.03221210000629,86.04042800000752,86.59475790000579,86.58902460000536,1,86.59226930000295,86.59475790000579,86.59475790000579,87.08876710000914,87.08876710000914,87.08102530000906,up,87.08107210000162,87.0810860000056,None,0.3691874999931315,None,,,,,,,,,,,006,001,2026-01-21_17h15.16.897,NESC3137_EEG_experiment,,2025.1.1,144.37222624586536,2026-01-21 17h15.35.859043 -0400,
63,0,63,down,None,0.4544452999980422,None,,,63,0,63,0,87.08876710000914,,,,,,,,,,,,,,,,,,,,87.08119029999943,87.08876710000914,87.89348359999713,87.8876600000076,2,87.89079840001068,87.89348359999713,87.89348359999713,88.38646780001,88.38646780001,88.38112309999997,down,88.38118840000243,88.38120610000624,None,0.4544452999980422,None,,,,,,,,,,,006,001,2026-01-21_17h15.16.897,NESC3137_EEG_experiment,,2025.1.1,144.37222624586536,2026-01-21 17h15.35.859043 -0400,
64,0,64,up,None,0.4294826999976067,None,,,64,0,64,0,88.38646780001,,,,,,,,,,,,,,,,,,,,88.38138310000068,88.38646780001,89.0466463000048,89.03949660000217,1,89.04232459999912,89.0466463000048,89.0466463000048,89.54038930000388,89.54038930000388,89.53254230000312,up,89.53257819999999,89.53259250000701,None,0.4294826999976067,None,,,,,,,,,,,006,001,2026-01-21_17h15.16.897,NESC3137_EEG_experiment,,2025.1.1,144.37222624586536,2026-01-21 17h15.35.859043 -0400,
65,0,65,up,None,0.4296060999913607,None,,,65,0,65,0,89.54038930000388,,,,,,,,,,,,,,,,,,,,89.53269700000237,89.54038930000388,90.47036190000654,90.46389929999714,1,90.46701350000512,90.47036190000654,90.47036190000654,90.96313309999823,90.96313309999823,90.95641980000073,up,90.95645680000598,90.95647230000759,None,0.4296060999913607,None,,,,,,,,,,,006,001,2026-01-21_17h15.16.897,NESC3137_EEG_experiment,,2025.1.1,144.37222624586536,2026-01-21 17h15.35.859043 -0400,
66,0,66,up,None,0.40211170000839047,None,,,66,0,66,0,90.96313309999823,,,,,,,,,,,,,,,,,,,,90.9565794000082,90.96313309999823,91.76187120001123,91.75511470000492,1,91.75805240000773,91.76187120001123,91.76187120001123,92.25502810000035,92.25502810000035,92.24836140000843,up,92.24841549999837,92.24844510000548,None,0.40211170000839047,None,,,,,,,,,,,006,001,2026-01-21_17h15.16.897,NESC3137_EEG_experiment,,2025.1.1,144.37222624586536,2026-01-21 17h15.35.859043 -0400,
67,0,67,down,None,0.45144380000419915,None,,,67,0,67,0,92.25502810000035,,,,,,,,,,,,,,,,,,,,92.24861150000652,92.25502810000035,92.88058779999847,92.87330980000843,2,92.87633260000439,92.88058779999847,92.88058779999847,93.37299980000535,93.37299980000535,93.36645159999898,down,93.36648760001117,93.36650129999907,None,0.45144380000419915,None,,,,,,,,,,,006,001,2026-01-21_17h15.16.897,NESC3137_EEG_experiment,,2025.1.1,144.37222624586536,2026-01-21 17h15.35.859043 -0400,
68,0,68,down,None,0.4392210000078194,None,,,68,0,68,0,93.37299980000535,,,,,,,,,,,,,,,,,,,,93.36660870000196,93.37299980000535,94.32468289999815,94.31857220000529,2,94.32123760000104,94.32468289999815,94.32468289999815,94.8189207000105,94.8189207000105,94.81194559999858,down,94.81198160001077,94.81199570000172,None,0.4392210000078194,None,,,,,,,,,,,006,001,2026-01-21_17h15.16.897,NESC3137_EEG_experiment,,2025.1.1,144.37222624586536,2026-01-21 17h15.35.859043 -0400,
69,0,69,down,None,0.38672480000241194,None,,,69,0,69,0,94.8189207000105,,,,,,,,,,,,,,,,,,,,94.8120995000063,94.8189207000105,95.76933550000831,95.76253690000158,1,95.76719800000137,95.76933550000831,95.76933550000831,96.26250230000005,96.26250230000005,96.25578870000027,down,96.25582360000408,96.25583770000958,None,0.38672480000241194,None,,,,,,,,,,,006,001,2026-01-21_17h15.16.897,NESC3137_EEG_experiment,,2025.1.1,144.37222624586536,2026-01-21 17h15.35.859043 -0400,
70,0,70,None,None,,,,,70,0,70,0,96.26250230000005,,,,,,,,,,,,,,,,,,,,96.255937000009,96.26250230000005,97.10862240000279,97.09722660000261,1,97.10565230000066,97.10862240000279,97.10862240000279,97.6037309000094,97.6037309000094,97.59620280000672,None,97.59623490000376,97.59624990000157,None,,,,,,,,,,,,,006,001,2026-01-21_17h15.16.897,NESC3137_EEG_experiment,,2025.1.1,144.37222624586536,2026-01-21 17h15.35.859043 -0400,
71,0,71,None,None,,,,,71,0,71,0,97.6037309000094,,,,,,,,,,,,,,,,,,,,97.59639479999896,97.6037309000094,98.58280090001062,98.57683390000602,2,98.58010250001098,98.58280090001062,98.58280090001062,99.07540339999832,99.07540339999832,99.06856790000165,None,99.06859880000411,99.06861270000809,None,,,,,,,,,,,,,006,001,2026-01-21_17h15.16.897,NESC3137_EEG_experiment,,2025.1.1,144.37222624586536,2026-01-21 17h15.35.859043 -0400,
72,0,72,None,None,,,,,72,0,72,0,99.07540339999832,,,,,,,,,,,,,,,,,,,,99.0688467,99.07540339999832,99.98511049999797,99.97937230000389,2,99.98225290000846,99.98511049999797,99.98511049999797,100.47935370000778,100.47935370000778,100.47212500000023,None,100.47218609999982,100.47220090001065,None,,,,,,,,,,,,,006,001,2026-01-21_17h15.16.897,NESC3137_EEG_experiment,,2025.1.1,144.37222624586536,2026-01-21 17h15.35.859043 -0400,
73,0,73,down,None,0.4136822000000393,None,,,73,0,73,0,100.47935370000778,,,,,,,,,,,,,,,,,,,,100.4723199,100.47935370000778,101.21442060000845,101.2076997999975,2,101.21073610000894,101.21442060000845,101.21442060000845,101.70844980000402,101.70844980000402,101.70231190000777,down,101.70235060001141,101.70236650000152,None,0.4136822000000393,None,,,,,,,,,,,006,001,2026-01-21_17h15.16.897,NESC3137_EEG_experiment,,2025.1.1,144.37222624586536,2026-01-21 17h15.35.859043 -0400,
74,0,74,None,None,,,,,74,0,74,0,101.70844980000402,,,,,,,,,,,,,,,,,,,,101.70248210000864,101.70844980000402,102.20065800000157,102.19452560000354,1,102.19766810000874,102.20065800000157,102.20065800000157,102.69484270000248,102.69484270000248,102.68804649999947,None,102.68809570001031,102.68812760000583,None,,,,,,,,,,,,,006,001,2026-01-21_17h15.16.897,NESC3137_EEG_experiment,,2025.1.1,144.37222624586536,2026-01-21 17h15.35.859043 -0400,
75,0,75,None,None,,,,,75,0,75,0,102.69484270000248,,,,,,,,,,,,,,,,,,,,102.68831409999984,102.69484270000248,103.61173980000603,103.60418290000234,2,103.60719840000093,103.61173980000603,103.61173980000603,104.10399830000824,104.10399830000824,104.09700600001088,None,104.09703600000648,104.09705060000124,None,,,,,,,,,,,,,006,001,2026-01-21_17h15.16.897,NESC3137_EEG_experiment,,2025.1.1,144.37222624586536,2026-01-21 17h15.35.859043 -0400,
76,0,76,None,None,,,,,76,0,76,0,104.10399830000824,,,,,,,,,,,,,,,,,,,,104.09715700001107,104.10399830000824,105.08366930000193,105.07680690000416,2,105.07976370000688,105.08366930000193,105.08366930000193,105.57625810000172,105.57625810000172,105.56996700000309,None,105.5699975000025,105.57001170000876,None,,,,,,,,,,,,,006,001,2026-01-21_17h15.16.897,NESC3137_EEG_experiment,,2025.1.1,144.37222624586536,2026-01-21 17h15.35.859043 -0400,
77,0,77,None,None,,,,,77,0,77,0,105.57625810000172,,,,,,,,,,,,,,,,,,,,105.57011749999947,105.57625810000172,106.52066740000737,106.51386520000233,1,106.51687740000489,106.52066740000737,106.52066740000737,107.01386520000233,107.01386520000233,107.00710090000939,None,107.00713170001109,107.00714610000432,None,,,,,,,,,,,,,006,001,2026-01-21_17h15.16.897,NESC3137_EEG_experiment,,2025.1.1,144.37222624586536,2026-01-21 17h15.35.859043 -0400,
78,0,78,None,None,,,,,78,0,78,0,107.01386520000233,,,,,,,,,,,,,,,,,,,,107.00725400001102,107.01386520000233,107.85414940000919,107.84729420000804,2,107.85067440000421,107.85414940000919,107.85414940000919,108.3479789999983,108.3479789999983,108.34143270000641,None,108.34146550000878,108.34147929999745,None,,,,,,,,,,,,,006,001,2026-01-21_17h15.16.897,NESC3137_EEG_experiment,,2025.1.1,144.37222624586536,2026-01-21 17h15.35.859043 -0400,
79,0,79,None,None,,,,,79,0,79,0,108.3479789999983,,,,,,,,,,,,,,,,,,,,108.34158500000194,108.3479789999983,108.95199090000824,108.94475000000966,2,108.94721280000522,108.95199090000824,108.95199090000824,109.44577580000623,109.44577580000623,109.43789539999852,None,109.43792670000403,109.43794160000107,None,,,,,,,,,,,,,006,001,2026-01-21_17h15.16.897,NESC3137_EEG_experiment,,2025.1.1,144.37222624586536,2026-01-21 17h15.35.859043 -0400,
80,0,80,up,None,0.4448038000118686,None,,,80,0,80,0,109.44577580000623,,,,,,,,,,,,,,,,,,,,109.43804490000184,109.44577580000623,109.95926940000209,109.95181720000983,1,109.9543357000075,109.95926940000209,109.95926940000209,110.45178300001135,110.45178300001135,110.44499519999954,up,110.445034999997,110.44504869999946,None,0.4448038000118686,None,,,,,,,,,,,006,001,2026-01-21_17h15.16.897,NESC3137_EEG_experiment,,2025.1.1,144.37222624586536,2026-01-21 17h15.35.859043 -0400,
81,0,81,None,None,,,,,81,0,81,0,110.45178300001135,,,,,,,,,,,,,,,,,,,,110.44515200000023,110.45178300001135,111.21702240000013,111.20925310000894,1,111.21198860000004,111.21702240000013,111.21702240000013,111.70891040000424,111.70891040000424,111.70229180000024,None,111.70233790000202,111.70236500000465,None,,,,,,,,,,,,,006,001,2026-01-21_17h15.16.897,NESC3137_EEG_experiment,,2025.1.1,144.37222624586536,2026-01-21 17h15.35.859043 -0400,
82,0,82,up,None,0.43994030001340434,None,,,82,0,82,0,111.70891040000424,,,,,,,,,,,,,,,,,,,,111.70252299999993,111.70891040000424,112.61193800000183,112.60616190001019,1,112.60943380001117,112.61193800000183,112.61193800000183,113.10493830000632,113.10493830000632,113.09861840000667,up,113.09866380000312,113.09867760000634,None,0.43994030001340434,None,,,,,,,,,,,006,001,2026-01-21_17h15.16.897,NESC3137_EEG_experiment,,2025.1.1,144.37222624586536,2026-01-21 17h15.35.859043 -0400,
83,0,83,up,None,0.4603579999966314,None,,,83,0,83,0,113.10493830000632,,,,,,,,,,,,,,,,,,,,113.09878980000212,113.10493830000632,113.75153750000754,113.7458234000078,1,113.74965959999827,113.75153750000754,113.75153750000754,114.2440004000091,114.2440004000091,114.23878440000408,up,114.23882080000476,114.23883580000256,None,0.4603579999966314,None,,,,,,,,,,,006,001,2026-01-21_17h15.16.897,NESC3137_EEG_experiment,,2025.1.1,144.37222624586536,2026-01-21 17h15.35.859043 -0400,
84,0,84,down,None,0.47674489999189973,None,,,84,0,84,0,114.2440004000091,,,,,,,,,,,,,,,,,,,,114.23895080000511,114.2440004000091,115.01516830000037,115.0087113000045,2,115.01150220001,115.01516830000037,115.01516830000037,115.50911800000176,115.50911800000176,115.50162370000908,down,115.50165890000062,115.50167310000688,None,0.47674489999189973,None,,,,,,,,,,,006,001,2026-01-21_17h15.16.897,NESC3137_EEG_experiment,,2025.1.1,144.37222624586536,2026-01-21 17h15.35.859043 -0400,
85,0,85,down,None,0.4102256999904057,None,,,85,0,85,0,115.50911800000176,,,,,,,,,,,,,,,,,,,,115.50177930000063,115.50911800000176,116.32166600000346,116.31507789999887,2,116.31865610000386,116.32166600000346,116.32166600000346,116.81451310000557,116.81451310000557,116.8081794000027,down,116.80821709999873,116.80823150000651,None,0.4102256999904057,None,,,,,,,,,,,006,001,2026-01-21_17h15.16.897,NESC3137_EEG_experiment,,2025.1.1,144.37222624586536,2026-01-21 17h15.35.859043 -0400,
86,0,86,None,None,,,,,86,0,86,0,116.81451310000557,,,,,,,,,,,,,,,,,,,,116.80833960000018,116.81451310000557,117.71665020000364,117.70986400000402,2,117.71334830000706,117.71665020000364,117.71665020000364,118.20961469999747,118.20961469999747,118.20315149999806,None,118.20319559999916,118.20322219999798,None,,,,,,,,,,,,,006,001,2026-01-21_17h15.16.897,NESC3137_EEG_experiment,,2025.1.1,144.37222624586536,2026-01-21 17h15.35.859043 -0400,
87,0,87,down,None,0.4564078999974299,None,,,87,0,87,0,118.20961469999747,,,,,,,,,,,,,,,,,,,,118.20337290001044,118.20961469999747,118.77976410000701,118.77324210001098,2,118.77619000000414,118.77976410000701,118.77976410000701,119.27241360000335,119.27241360000335,119.26701019999746,down,119.26705100000254,119.26706550001109,None,0.4564078999974299,None,,,,,,,,,,,006,001,2026-01-21_17h15.16.897,NESC3137_EEG_experiment,,2025.1.1,144.37222624586536,2026-01-21 17h15.35.859043 -0400,
88,0,88,None,None,,,,,88,0,88,0,119.27241360000335,,,,,,,,,,,,,,,,,,,,119.26719559999765,119.27241360000335,119.81403400001,119.80769890001102,1,119.81070810000529,119.81403400001,119.81403400001,120.30843489999825,120.30843489999825,120.30095099999744,None,120.30098280000675,120.30099840000912,None,,,,,,,,,,,,,006,001,2026-01-21_17h15.16.897,NESC3137_EEG_experiment,,2025.1.1,144.37222624586536,2026-01-21 17h15.35.859043 -0400,
89,0,89,None,None,,,,,89,0,89,0,120.30843489999825,,,,,,,,,,,,,,,,,,,,120.30111050000414,120.30843489999825,120.86278710000624,120.85674590000417,1,120.85972469999979,120.86278710000624,120.86278710000624,121.3558880000055,121.3558880000055,121.34916300000623,None,121.34920769999735,121.34923469999922,None,,,,,,,,,,,,,006,001,2026-01-21_17h15.16.897,NESC3137_EEG_experiment,,2025.1.1,144.37222624586536,2026-01-21 17h15.35.859043 -0400,
90,0,90,None,None,,,,,90,0,90,0,121.3558880000055,,,,,,,,,,,,,,,,,,,,121.34939770000346,121.3558880000055,121.96715330000734,121.96031540000695,2,121.96308120001049,121.96715330000734,121.96715330000734,122.46023779999814,122.46023779999814,122.4544964000088,None,122.45455760000914,122.4545872000017,None,,,,,,,,,,,,,006,001,2026-01-21_17h15.16.897,NESC3137_EEG_experiment,,2025.1.1,144.37222624586536,2026-01-21 17h15.35.859043 -0400,
91,0,91,up,None,0.4435691999970004,None,,,91,0,91,0,122.46023779999814,,,,,,,,,,,,,,,,,,,,122.45480190000671,122.46023779999814,123.28825240000151,123.27975890001107,1,123.28228800000215,123.28825240000151,123.28825240000151,123.77986910000618,123.77986910000618,123.77431180000713,up,123.77437480000663,123.77439590000722,None,0.4435691999970004,None,,,,,,,,,,,006,001,2026-01-21_17h15.16.897,NESC3137_EEG_experiment,,2025.1.1,144.37222624586536,2026-01-21 17h15.35.859043 -0400,
92,0,92,None,None,,,,,92,0,92,0,123.77986910000618,,,,,,,,,,,,,,,,,,,,123.77474750000692,123.77986910000618,124.73894989999826,124.73277270000835,2,124.7357073000021,124.73894989999826,124.73894989999826,125.23208290000912,125.23208290000912,125.22512220000499,None,125.22515179999755,125.2251655,None,,,,,,,,,,,,,006,001,2026-01-21_17h15.16.897,NESC3137_EEG_experiment,,2025.1.1,144.37222624586536,2026-01-21 17h15.35.859043 -0400,
93,0,93,None,None,,,,,93,0,93,0,125.23208290000912,,,,,,,,,,,,,,,,,,,,125.22527460000128,125.23208290000912,126.18411570000171,126.17591460001131,2,126.18024510001123,126.18411570000171,126.18411570000171,126.67582480001147,126.67582480001147,126.66937030000554,None,126.66941430000588,126.66944030000013,None,,,,,,,,,,,,,006,001,2026-01-21_17h15.16.897,NESC3137_EEG_experiment,,2025.1.1,144.37222624586536,2026-01-21 17h15.35.859043 -0400,
94,0,94,None,None,,,,,94,0,94,0,126.67582480001147,,,,,,,,,,,,,,,,,,,,126.6696007999999,126.67582480001147,127.20419750000292,127.19780970001011,1,127.20208660000935,127.20419750000292,127.20419750000292,127.69706560000486,127.69706560000486,127.69119840000349,None,127.6912316000089,127.69124650000595,None,,,,,,,,,,,,,006,001,2026-01-21_17h15.16.897,NESC3137_EEG_experiment,,2025.1.1,144.37222624586536,2026-01-21 17h15.35.859043 -0400,
95,0,95,None,None,,,,,95,0,95,0,127.69706560000486,,,,,,,,,,,,,,,,,,,,127.69136480000452,127.69706560000486,128.29427900000883,128.2875800000038,1,128.29020210000454,128.29427900000883,128.29427900000883,128.78836740000406,128.78836740000406,128.78120800000033,None,128.7812389000028,128.78125320000981,None,,,,,,,,,,,,,006,001,2026-01-21_17h15.16.897,NESC3137_EEG_experiment,,2025.1.1,144.37222624586536,2026-01-21 17h15.35.859043 -0400,
96,0,96,None,None,,,,,96,0,96,0,128.78836740000406,,,,,,,,,,,,,,,,,,,,128.78136500000255,128.78836740000406,129.29570310001145,129.28820989999804,1,129.29048390001117,129.29570310001145,129.29570310001145,129.78769009999814,129.78769009999814,129.78084320000198,None,129.78087930000038,129.78089350000664,None,,,,,,,,,,,,,006,001,2026-01-21_17h15.16.897,NESC3137_EEG_experiment,,2025.1.1,144.37222624586536,2026-01-21 17h15.35.859043 -0400,
97,0,97,down,None,0.43800999999803025,None,,,97,0,97,0,129.78769009999814,,,,,,,,,,,,,,,,,,,,129.7809988000081,129.78769009999814,130.77390970000124,130.76704610000888,2,130.77021480000985,130.77390970000124,130.77390970000124,131.26731560000917,131.26731560000917,131.26028300001053,down,131.26033530000132,131.2603630000085,None,0.43800999999803025,None,,,,,,,,,,,006,001,2026-01-21_17h15.16.897,NESC3137_EEG_experiment,,2025.1.1,144.37222624586536,2026-01-21 17h15.35.859043 -0400,
98,0,98,up,None,0.4330257000110578,None,,,98,0,98,0,131.26731560000917,,,,,,,,,,,,,,,,,,,,131.26053189999948,131.26731560000917,131.79480450000847,131.7897748000105,1,131.79298779999954,131.79480450000847,131.79480450000847,132.28786490000493,132.28786490000493,132.2810887000087,up,132.28112590000092,132.28113970000413,None,0.4330257000110578,None,,,,,,,,,,,006,001,2026-01-21_17h15.16.897,NESC3137_EEG_experiment,,2025.1.1,144.37222624586536,2026-01-21 17h15.35.859043 -0400,
99,0,99,None,None,,,,,99,0,99,0,132.28786490000493,,,,,,,,,,,,,,,,,,,,132.28125020000152,132.28786490000493,133.11429379999754,133.10844170000928,2,133.11170619999757,133.11429379999754,133.11429379999754,133.60757550000562,133.60757550000562,133.60078170000634,None,133.60082430001057,133.60085170000093,None,,,,,,,,,,,,,006,001,2026-01-21_17h15.16.897,NESC3137_EEG_experiment,,2025.1.1,144.37222624586536,2026-01-21 17h15.35.859043 -0400,
100,0,100,None,None,,,,,100,0,100,0,133.60757550000562,,,,,,,,,,,,,,,,,,,,133.60100979999697,133.60757550000562,134.50370909999765,134.49678370000038,1,134.50065129999712,134.50370909999765,134.50370909999765,134.99727970000822,134.99727970000822,134.9898979999998,None,134.98992750000616,134.9899410000071,None,,,,,,,,,,,,,006,001,2026-01-21_17h15.16.897,NESC3137_EEG_experiment,,2025.1.1,144.37222624586536,2026-01-21 17h15.35.859043 -0400,
101,0,101,down,None,0.40789659999427386,None,,,101,0,101,0,134.99727970000822,,,,,,,,,,,,,,,,,,,,134.9900353999983,134.99727970000822,135.5320761000039,135.52516820000892,2,135.5285370000056,135.5320761000039,135.5320761000039,136.02500670000154,136.02500670000154,136.01839880000625,down,136.018438900006,136.0184539000038,None,0.40789659999427386,None,,,,,,,,,,,006,001,2026-01-21_17h15.16.897,NESC3137_EEG_experiment,,2025.1.1,144.37222624586536,2026-01-21 17h15.35.859043 -0400,
102,0,102,None,None,,,,,102,0,102,0,136.02500670000154,,,,,,,,,,,,,,,,,,,,136.0185741000023,136.02500670000154,136.8523789000028,136.84420580000733,2,136.847090700001,136.8523789000028,136.8523789000028,137.3439606000029,137.3439606000029,137.3373527000076,None,137.33738480000466,137.3373991999979,None,,,,,,,,,,,,,006,001,2026-01-21_17h15.16.897,NESC3137_EEG_experiment,,2025.1.1,144.37222624586536,2026-01-21 17h15.35.859043 -0400,
103,0,103,None,None,,,,,103,0,103,0,137.3439606000029,,,,,,,,,,,,,,,,,,,,137.33750670000154,137.3439606000029,137.99054780000006,137.9848512000026,2,137.98774690000573,137.99054780000006,137.99054780000006,138.48444810000365,138.48444810000365,138.4767692000023,None,138.47680570000375,138.4768197000085,None,,,,,,,,,,,,,006,001,2026-01-21_17h15.16.897,NESC3137_EEG_experiment,,2025.1.1,144.37222624586536,2026-01-21 17h15.35.859043 -0400,
104,0,104,None,None,,,,,104,0,104,0,138.48444810000365,,,,,,,,,,,,,,,,,,,,138.47692480000842,138.48444810000365,139.21228570000676,139.20651840000937,1,139.20930149999913,139.21228570000676,139.21228570000676,139.70543149999867,139.70543149999867,139.7003027000028,None,139.70039779999934,139.70041570000467,None,,,,,,,,,,,,,006,001,2026-01-21_17h15.16.897,NESC3137_EEG_experiment,,2025.1.1,144.37222624586536,2026-01-21 17h15.35.859043 -0400,
105,0,105,down,None,0.37959729999420233,None,,,105,0,105,0,139.70543149999867,,,,,,,,,,,,,,,,,,,,139.70060640000156,139.70543149999867,140.2402110999974,140.2335194000043,2,140.23674390000815,140.2402110999974,140.2402110999974,140.7333234000107,140.7333234000107,140.72824260000198,down,140.7283291000058,140.7283585999976,None,0.37959729999420233,None,,,,,,,,,,,006,001,2026-01-21_17h15.16.897,NESC3137_EEG_experiment,,2025.1.1,144.37222624586536,2026-01-21 17h15.35.859043 -0400,
106,0,106,up,None,0.35676360000798013,None,,,106,0,106,0,140.7333234000107,,,,,,,,,,,,,,,,,,,,140.72858120000456,140.7333234000107,141.3030859999999,141.2971988000063,1,141.30055260000518,141.3030859999999,141.3030859999999,141.795907599997,141.795907599997,141.78936280000198,up,141.7893977000058,141.78941199999826,None,0.35676360000798013,None,,,,,,,,,,,006,001,2026-01-21_17h15.16.897,NESC3137_EEG_experiment,,2025.1.1,144.37222624586536,2026-01-21 17h15.35.859043 -0400,
107,0,107,down,None,0.4184796999907121,None,,,107,0,107,0,141.795907599997,,,,,,,,,,,,,,,,,,,,141.78951460000826,141.795907599997,142.2893594000052,142.28376160000334,2,142.28655550000258,142.2893594000052,142.2893594000052,142.78218150000612,142.78218150000612,142.77555279999797,down,142.7756059000094,142.77563190000365,None,0.4184796999907121,None,,,,,,,,,,,006,001,2026-01-21_17h15.16.897,NESC3137_EEG_experiment,,2025.1.1,144.37222624586536,2026-01-21 17h15.35.859043 -0400,
108,0,108,None,None,,,,,108,0,108,0,142.78218150000612,,,,,,,,,,,,,,,,,,,,142.775796300004,142.78218150000612,143.29763070000627,143.2897387999983,2,143.29273349999858,143.29763070000627,143.29763070000627,143.7894082999992,143.7894082999992,143.7826217999973,None,143.78265259999898,143.78266730000905,None,,,,,,,,,,,,,006,001,2026-01-21_17h15.16.897,NESC3137_EEG_experiment,,2025.1.1,144.37222624586536,2026-01-21 17h15.35.859043 -0400,
109,0,109,None,None,,,,,109,0,109,0,143.7894082999992,,,,,,,,,,,,,,,,,,,,143.78277900000103,143.7894082999992,144.2963168999995,144.28972260000592,2,144.29257400000643,144.2963168999995,144.2963168999995,144.79039590001048,144.79039590001048,144.78407770000922,None,144.78411040001083,144.78412579999713,None,,,,,,,,,,,,,006,001,2026-01-21_17h15.16.897,NESC3137_EEG_experiment,,2025.1.1,144.37222624586536,2026-01-21 17h15.35.859043 -0400,
110,0,110,up,None,0.4725403000047663,None,,,110,0,110,0,144.79039590001048,,,,,,,,,,,,,,,,,,,,144.78423679999833,144.79039590001048,145.43534890000592,145.42858950000664,1,145.43198649999977,145.43534890000592,145.43534890000592,145.92950330000895,145.92950330000895,145.92187170000398,up,145.92206180001085,145.92209720000392,None,0.4725403000047663,None,,,,,,,,,,,006,001,2026-01-21_17h15.16.897,NESC3137_EEG_experiment,,2025.1.1,144.37222624586536,2026-01-21 17h15.35.859043 -0400,
111,0,111,None,None,,,,,111,0,111,0,145.92950330000895,,,,,,,,,,,,,,,,,,,,145.9223486999981,145.92950330000895,146.85945220000576,146.85237420001067,1,146.85519630000636,146.85945220000576,146.85945220000576,147.35247009999875,147.35247009999875,147.34560050000437,None,147.34563029999845,147.34564379999938,None,,,,,,,,,,,,,006,001,2026-01-21_17h15.16.897,NESC3137_EEG_experiment,,2025.1.1,144.37222624586536,2026-01-21 17h15.35.859043 -0400,
112,0,112,None,None,,,,,112,0,112,0,147.35247009999875,,,,,,,,,,,,,,,,,,,,147.34574710000015,147.35247009999875,148.0071222000115,147.99192369999946,1,148.0036495000095,148.0071222000115,148.0071222000115,,,148.4947453000059,None,148.49478560000716,148.49480260000564,None,,,,,,,,,,,,,006,001,2026-01-21_17h15.16.897,NESC3137_EEG_experiment,,2025.1.1,144.37222624586536,2026-01-21 17h15.35.859043 -0400,
113,0,113,up,None,0.39867429999867454,None,,,113,0,113,0,148.50175039999885,,,,,,,,,,,,,,,,,,,,148.4949181999982,148.50175039999885,149.0851371000026,149.07835250000062,1,149.0829623000027,149.0851371000026,149.0851371000026,149.5782348000066,149.5782348000066,149.57184190000407,up,149.57188410000526,149.5718984999985,None,0.39867429999867454,None,,,,,,,,,,,006,001,2026-01-21_17h15.16.897,NESC3137_EEG_experiment,,2025.1.1,144.37222624586536,2026-01-21 17h15.35.859043 -0400,
114,0,114,down,None,0.438246200006688,None,,,114,0,114,0,149.5782348000066,,,,,,,,,,,,,,,,,,,,149.57201160000113,149.5782348000066,150.24582240000018,150.23934169999848,2,150.2418550000002,150.24582240000018,150.24582240000018,150.738041900011,150.738041900011,150.7313753000053,down,150.7314170000027,150.73143220000202,None,0.438246200006688,None,,,,,,,,,,,006,001,2026-01-21_17h15.16.897,NESC3137_EEG_experiment,,2025.1.1,144.37222624586536,2026-01-21 17h15.35.859043 -0400,
115,0,115,up,None,0.38292380000348203,None,,,115,0,115,0,150.738041900011,,,,,,,,,,,,,,,,,,,,150.7315374000027,150.738041900011,151.4048588000005,151.39902199999779,1,151.40219960000832,151.4048588000005,151.4048588000005,151.8981141000113,151.8981141000113,151.89221700000053,up,151.89228000000003,151.89229550000164,None,0.38292380000348203,None,,,,,,,,,,,006,001,2026-01-21_17h15.16.897,NESC3137_EEG_experiment,,2025.1.1,144.37222624586536,2026-01-21 17h15.35.859043 -0400,
116,0,116,down,None,0.44476459998986684,None,,,116,0,116,0,151.8981141000113,,,,,,,,,,,,,,,,,,,,151.89244860000326,151.8981141000113,152.39926710000145,152.39203010000347,2,152.39458300000115,152.39926710000145,152.39926710000145,152.89217150000331,152.89217150000331,152.8845755000075,down,152.88460950000444,152.88462340000842,None,0.44476459998986684,None,,,,,,,,,,,006,001,2026-01-21_17h15.16.897,NESC3137_EEG_experiment,,2025.1.1,144.37222624586536,2026-01-21 17h15.35.859043 -0400,
117,0,117,None,None,,,,,117,0,117,0,152.89217150000331,,,,,,,,,,,,,,,,,,,,152.88472719999845,152.89217150000331,153.48875790000602,153.48274580000725,2,153.48577710000973,153.48875790000602,153.48875790000602,153.98157560000254,153.98157560000254,153.97493720000784,None,153.97497229999863,153.97498720001022,None,,,,,,,,,,,,,006,001,2026-01-21_17h15.16.897,NESC3137_EEG_experiment,,2025.1.1,144.37222624586536,2026-01-21 17h15.35.859043 -0400,
118,0,118,None,None,,,,,118,0,118,0,153.98157560000254,,,,,,,,,,,,,,,,,,,,153.97509780000837,153.98157560000254,154.50944419999723,154.50321750000876,2,154.50604870000097,154.50944419999723,154.50944419999723,155.0036712000001,155.0036712000001,154.9959031000035,None,154.9959336000029,154.99594810001145,None,,,,,,,,,,,,,006,001,2026-01-21_17h15.16.897,NESC3137_EEG_experiment,,2025.1.1,144.37222624586536,2026-01-21 17h15.35.859043 -0400,
119,0,119,None,None,,,,,119,0,119,0,155.0036712000001,,,,,,,,,,,,,,,,,,,,154.99605390000215,155.0036712000001,155.64961180000682,155.64203940000152,2,155.64589830000477,155.64961180000682,155.64961180000682,156.1412968000077,156.1412968000077,156.1348447000055,None,156.1348880000005,156.13491200000863,None,,,,,,,,,,,,,006,001,2026-01-21_17h15.16.897,NESC3137_EEG_experiment,,2025.1.1,144.37222624586536,2026-01-21 17h15.35.859043 -0400,
120,0,120,None,None,,,,,120,0,120,0,156.1412968000077,,,,,,,,,,,,,,,,,,,,156.13501810000162,156.1412968000077,156.67705070000375,156.66937470000994,2,156.67314970000007,156.67705070000375,156.67705070000375,157.16954250000708,157.16954250000708,157.1632859000092,None,157.1633440000005,157.16337300000305,None,,,,,,,,,,,,,006,001,2026-01-21_17h15.16.897,NESC3137_EEG_experiment,,2025.1.1,144.37222624586536,2026-01-21 17h15.35.859043 -0400,
121,0,121,down,None,0.4736168999952497,None,,,121,0,121,0,157.16954250000708,,,,,,,,,,,,,,,,,,,,157.16358240001136,157.16954250000708,157.85023770001135,157.8432399000012,2,157.84801290000905,157.85023770001135,157.85023770001135,158.3441460000031,158.3441460000031,158.33673850000196,down,158.33680289999756,158.33683470000688,None,0.4736168999952497,None,,,,,,,,,,,006,001,2026-01-21_17h15.16.897,NESC3137_EEG_experiment,,2025.1.1,144.37222624586536,2026-01-21 17h15.35.859043 -0400,
122,0,122,None,None,,,,,122,0,122,0,158.3441460000031,,,,,,,,,,,,,,,,,,,,158.33700910001062,158.3441460000031,158.87108750001062,158.86436540000432,1,158.8683818999998,158.87108750001062,158.87108750001062,159.36489230000007,159.36489230000007,159.35734260000754,None,159.35737360001076,159.35738870000932,None,,,,,,,,,,,,,006,001,2026-01-21_17h15.16.897,NESC3137_EEG_experiment,,2025.1.1,144.37222624586536,2026-01-21 17h15.35.859043 -0400,
123,0,123,down,None,0.4731295000092359,None,,,123,0,123,0,159.36489230000007,,,,,,,,,,,,,,,,,,,,159.35749400001077,159.36489230000007,160.21881370000483,160.21187929999724,2,160.21541119999893,160.21881370000483,160.21881370000483,160.71156890000566,160.71156890000566,160.70526980000432,down,160.7053059000027,160.70532020000974,None,0.4731295000092359,None,,,,,,,,,,,006,001,2026-01-21_17h15.16.897,NESC3137_EEG_experiment,,2025.1.1,144.37222624586536,2026-01-21 17h15.35.859043 -0400,
124,0,124,None,None,,,,,124,0,124,0,160.71156890000566,,,,,,,,,,,,,,,,,,,,160.70543290000933,160.71156890000566,161.48256679999758,161.47571310000785,2,161.47843030000513,161.48256679999758,161.48256679999758,161.975697700007,161.975697700007,161.96892780000053,None,161.9689805000089,161.9690064000024,None,,,,,,,,,,,,,006,001,2026-01-21_17h15.16.897,NESC3137_EEG_experiment,,2025.1.1,144.37222624586536,2026-01-21 17h15.35.859043 -0400,
125,0,125,None,None,,,,,125,0,125,0,161.975697700007,,,,,,,,,,,,,,,,,,,,161.9691642000107,161.975697700007,162.94251210000948,162.9343547000026,1,162.9373185000004,162.94251210000948,162.94251210000948,163.43421980000858,163.43421980000858,163.42747039999813,None,163.42750260001048,163.42751800001133,None,,,,,,,,,,,,,006,001,2026-01-21_17h15.16.897,NESC3137_EEG_experiment,,2025.1.1,144.37222624586536,2026-01-21 17h15.35.859043 -0400,
126,0,126,down,None,0.4569216000090819,None,,,126,0,126,0,163.43421980000858,,,,,,,,,,,,,,,,,,,,163.42762709999806,163.43421980000858,164.17888479999965,164.1706889000052,2,164.17325810001057,164.17888479999965,164.17888479999965,164.67146270000376,164.67146270000376,164.66496059999918,down,164.66500470000028,164.6650190000073,None,0.4569216000090819,None,,,,,,,,,,,006,001,2026-01-21_17h15.16.897,NESC3137_EEG_experiment,,2025.1.1,144.37222624586536,2026-01-21 17h15.35.859043 -0400,
127,0,127,down,None,0.45977549999952316,None,,,127,0,127,0,164.67146270000376,,,,,,,,,,,,,,,,,,,,164.66512400000647,164.67146270000376,165.30405469999823,165.2964376000018,2,165.2992973000073,165.30405469999823,165.30405469999823,165.79562630000873,165.79562630000873,165.78916110000864,down,165.7892353000061,165.78926440000942,None,0.45977549999952316,None,,,,,,,,,,,006,001,2026-01-21_17h15.16.897,NESC3137_EEG_experiment,,2025.1.1,144.37222624586536,2026-01-21 17h15.35.859043 -0400,
128,0,128,down,None,0.3746302000072319,None,,,128,0,128,0,165.79562630000873,,,,,,,,,,,,,,,,,,,,165.78954730000987,165.79562630000873,166.57371830000193,166.56791490000614,2,166.57058620000316,166.57371830000193,166.57371830000193,167.0666984999989,167.0666984999989,167.05979140001,down,167.05982740000763,167.05984159999934,None,0.3746302000072319,None,,,,,,,,,,,006,001,2026-01-21_17h15.16.897,NESC3137_EEG_experiment,,2025.1.1,144.37222624586536,2026-01-21 17h15.35.859043 -0400,
129,0,129,up,None,0.4432673999981489,None,,,129,0,129,0,167.0666984999989,,,,,,,,,,,,,,,,,,,,167.05996959999902,167.0666984999989,167.72060220000276,167.71358110000438,1,167.71629009999742,167.72060220000276,167.72060220000276,168.21258110000053,168.21258110000053,168.20708659999946,up,168.2071244000108,168.20713960001012,None,0.4432673999981489,None,,,,,,,,,,,006,001,2026-01-21_17h15.16.897,NESC3137_EEG_experiment,,2025.1.1,144.37222624586536,2026-01-21 17h15.35.859043 -0400,
130,0,130,None,None,,,,,130,0,130,0,168.21258110000053,,,,,,,,,,,,,,,,,,,,168.20725469999888,168.21258110000053,168.86609060000046,168.8584633999999,1,168.8614293999999,168.86609060000046,168.86609060000046,169.35880349999934,169.35880349999934,169.35247480000544,None,169.3525057000079,169.3525202000019,None,,,,,,,,,,,,,006,001,2026-01-21_17h15.16.897,NESC3137_EEG_experiment,,2025.1.1,144.37222624586536,2026-01-21 17h15.35.859043 -0400,
131,0,131,down,None,0.4072070999973221,None,,,131,0,131,0,169.35880349999934,,,,,,,,,,,,,,,,,,,,169.35261919999903,169.35880349999934,170.26857260000543,170.26226000000315,2,170.26513400000113,170.26857260000543,170.26857260000543,170.76236459999927,170.76236459999927,170.75629130000016,down,170.75634069999796,170.75635450000118,None,0.4072070999973221,None,,,,,,,,,,,006,001,2026-01-21_17h15.16.897,NESC3137_EEG_experiment,,2025.1.1,144.37222624586536,2026-01-21 17h15.35.859043 -0400,
132,0,132,None,None,,,,,132,0,132,0,170.76236459999927,,,,,,,,,,,,,,,,,,,,170.75645780000195,170.76236459999927,171.32426249999844,171.3182080000115,2,171.32113730000856,171.32426249999844,171.32426249999844,171.81833310000366,171.81833310000366,171.8103914000094,None,171.81043310000678,171.81045950000407,None,,,,,,,,,,,,,006,001,2026-01-21_17h15.16.897,NESC3137_EEG_experiment,,2025.1.1,144.37222624586536,2026-01-21 17h15.35.859043 -0400,
133,0,133,None,None,,,,,133,0,133,0,171.81833310000366,,,,,,,,,,,,,,,,,,,,171.81060470000375,171.81833310000366,172.65779500000644,172.65133710000373,1,172.65509040000325,172.65779500000644,172.65779500000644,173.15151950001018,173.15151950001018,173.14392139999836,None,173.14395150000928,173.14396510001097,None,,,,,,,,,,,,,006,001,2026-01-21_17h15.16.897,NESC3137_EEG_experiment,,2025.1.1,144.37222624586536,2026-01-21 17h15.35.859043 -0400,
134,0,134,up,None,0.4375478000001749,None,,,134,0,134,0,173.15151950001018,,,,,,,,,,,,,,,,,,,,173.14406790000794,173.15151950001018,173.67850790001103,173.67262810000102,1,173.67580150000867,173.67850790001103,173.67850790001103,174.1734601000062,174.1734601000062,174.1651872000075,up,174.16522260000056,174.16524210000352,None,0.4375478000001749,None,,,,,,,,,,,006,001,2026-01-21_17h15.16.897,NESC3137_EEG_experiment,,2025.1.1,144.37222624586536,2026-01-21 17h15.35.859043 -0400,
135,0,135,None,None,,,,,135,0,135,0,174.1734601000062,,,,,,,,,,,,,,,,,,,,174.16535130000557,174.1734601000062,174.831442900002,174.8261433000007,1,174.82892400000128,174.831442900002,174.831442900002,175.32591440000397,175.32591440000397,175.31769170000916,None,175.31772880000062,175.3177432000084,None,,,,,,,,,,,,,006,001,2026-01-21_17h15.16.897,NESC3137_EEG_experiment,,2025.1.1,144.37222624586536,2026-01-21 17h15.35.859043 -0400,
136,0,136,None,None,,,,,136,0,136,0,175.32591440000397,,,,,,,,,,,,,,,,,,,,175.31784740000148,175.32591440000397,176.06903860000602,176.06111160000728,2,176.06370820000302,176.06903860000602,176.06903860000602,176.56092689999787,176.56092689999787,176.55437070000335,None,176.55440530000487,176.55442080000648,None,,,,,,,,,,,,,006,001,2026-01-21_17h15.16.897,NESC3137_EEG_experiment,,2025.1.1,144.37222624586536,2026-01-21 17h15.35.859043 -0400,
137,0,137,None,None,,,,,137,0,137,0,176.56092689999787,,,,,,,,,,,,,,,,,,,,176.55453160000616,176.56092689999787,177.41567000000214,177.40898740000557,2,177.4121468000085,177.41567000000214,177.41567000000214,177.90878290000546,177.90878290000546,177.9022229000111,None,177.9022629000101,177.9022782000102,None,,,,,,,,,,,,,006,001,2026-01-21_17h15.16.897,NESC3137_EEG_experiment,,2025.1.1,144.37222624586536,2026-01-21 17h15.35.859043 -0400,
138,0,138,down,None,0.47389720000501256,None,,,138,0,138,0,177.90878290000546,,,,,,,,,,,,,,,,,,,,177.9023867000069,177.90878290000546,178.71384229999967,178.70747030001075,2,178.71040460000222,178.71384229999967,178.71384229999967,179.20784149999963,179.20784149999963,179.20186470000772,down,179.20191760000307,179.20194710000942,None,0.47389720000501256,None,,,,,,,,,,,006,001,2026-01-21_17h15.16.897,NESC3137_EEG_experiment,,2025.1.1,144.37222624586536,2026-01-21 17h15.35.859043 -0400,
139,0,139,down,None,0.4469771000003675,None,,,139,0,139,0,179.20784149999963,,,,,,,,,,,,,,,,,,,,179.2021117999975,179.20784149999963,179.8126920000068,179.80463300000702,2,179.80719659999886,179.8126920000068,179.8126920000068,180.30468990000372,180.30468990000372,180.29773390000628,down,180.29776980000315,180.29778420001094,None,0.4469771000003675,None,,,,,,,,,,,006,001,2026-01-21_17h15.16.897,NESC3137_EEG_experiment,,2025.1.1,144.37222624586536,2026-01-21 17h15.35.859043 -0400,
140,0,140,up,None,0.47547629999462515,None,,,140,0,140,0,180.30468990000372,,,,,,,,,,,,,,,,,,,,180.29789139999775,180.30468990000372,181.20841900000232,181.20099589999882,1,181.2038273000071,181.20841900000232,181.20841900000232,181.70039320000797,181.70039320000797,181.69383840000955,up,181.69389120000415,181.6939177000022,None,0.47547629999462515,None,,,,,,,,,,,006,001,2026-01-21_17h15.16.897,NESC3137_EEG_experiment,,2025.1.1,144.37222624586536,2026-01-21 17h15.35.859043 -0400,
141,0,141,None,None,,,,,141,0,141,0,181.70039320000797,,,,,,,,,,,,,,,,,,,,181.69405669999833,181.70039320000797,182.67963969999983,182.67301210000005,1,182.6763348000095,182.67963969999983,182.67963969999983,183.1731373000075,183.1731373000075,183.16637250001077,None,183.16640420000476,183.16642100000172,None,,,,,,,,,,,,,006,001,2026-01-21_17h15.16.897,NESC3137_EEG_experiment,,2025.1.1,144.37222624586536,2026-01-21 17h15.35.859043 -0400,
142,0,142,up,None,0.4511442000075476,None,,,142,0,142,0,183.1731373000075,,,,,,,,,,,,,,,,,,,,183.16654430000926,183.1731373000075,184.00054980001005,183.99325780000072,1,183.99593869999808,184.00054980001005,184.00054980001005,184.4930769000057,184.4930769000057,184.48738600000797,up,184.4876355000015,184.48765780001122,None,0.4511442000075476,None,,,,,,,,,,,006,001,2026-01-21_17h15.16.897,NESC3137_EEG_experiment,,2025.1.1,144.37222624586536,2026-01-21 17h15.35.859043 -0400,
143,0,143,up,None,0.40083709999453276,None,,,143,0,143,0,184.4930769000057,,,,,,,,,,,,,,,,,,,,184.48786010000913,184.4930769000057,185.18693050000002,185.17990380000265,1,185.1831899000099,185.18693050000002,185.18693050000002,185.67982790000679,185.67982790000679,185.67304780000995,up,185.67308459999913,185.67310080000607,None,0.40083709999453276,None,,,,,,,,,,,006,001,2026-01-21_17h15.16.897,NESC3137_EEG_experiment,,2025.1.1,144.37222624586536,2026-01-21 17h15.35.859043 -0400,
144,0,144,down,None,0.4420743000082439,None,,,144,0,144,0,185.67982790000679,,,,,,,,,,,,,,,,,,,,185.6732032,185.67982790000679,186.30561140000646,186.29933330000495,2,186.30280130000028,186.30561140000646,186.30561140000646,186.79821439999796,186.79821439999796,186.79179860001022,down,186.791836400007,186.79185059999872,None,0.4420743000082439,None,,,,,,,,,,,006,001,2026-01-21_17h15.16.897,NESC3137_EEG_experiment,,2025.1.1,144.37222624586536,2026-01-21 17h15.35.859043 -0400,
145,0,145,None,None,,,,,145,0,145,0,186.79821439999796,,,,,,,,,,,,,,,,,,,,186.792008000004,186.79821439999796,187.66079809999792,187.65246979999938,1,187.65568429999985,187.66079809999792,187.66079809999792,188.15367080000578,188.15367080000578,188.1463386000105,None,188.14638859999832,188.14642099999764,None,,,,,,,,,,,,,006,001,2026-01-21_17h15.16.897,NESC3137_EEG_experiment,,2025.1.1,144.37222624586536,2026-01-21 17h15.35.859043 -0400,
146,0,146,None,None,,,,,146,0,146,0,188.15367080000578,,,,,,,,,,,,,,,,,,,,188.1466103999992,188.15367080000578,188.75005590000364,188.74316090000502,2,188.74614220000512,188.75005590000364,188.75005590000364,189.24307330000738,189.24307330000738,189.23753850000503,None,189.2375871000113,189.23761360000935,None,,,,,,,,,,,,,006,001,2026-01-21_17h15.16.897,NESC3137_EEG_experiment,,2025.1.1,144.37222624586536,2026-01-21 17h15.35.859043 -0400,
147,0,147,down,None,0.4749657000065781,None,,,147,0,147,0,189.24307330000738,,,,,,,,,,,,,,,,,,,,189.23777600000903,189.24307330000738,190.15279629999714,190.14614989999973,2,190.14951670001028,190.15279629999714,190.15279629999714,190.64600860000064,190.64600860000064,190.63921510000364,down,190.6392671000067,190.63928110001143,None,0.4749657000065781,None,,,,,,,,,,,006,001,2026-01-21_17h15.16.897,NESC3137_EEG_experiment,,2025.1.1,144.37222624586536,2026-01-21 17h15.35.859043 -0400,
148,0,148,down,None,0.4592324999975972,None,,,148,0,148,0,190.64600860000064,,,,,,,,,,,,,,,,,,,,190.63938600000984,190.64600860000064,191.47247910000442,191.46701390000817,2,191.46978610000224,191.47247910000442,191.47247910000442,191.96561199999996,191.96561199999996,191.95958530000644,down,191.95962930000678,191.9596434999985,None,0.4592324999975972,None,,,,,,,,,,,006,001,2026-01-21_17h15.16.897,NESC3137_EEG_experiment,,2025.1.1,144.37222624586536,2026-01-21 17h15.35.859043 -0400,
149,0,149,None,None,,,,,149,0,149,0,191.96561199999996,,,,,,,,,,,,,,,,,,,,191.9597630000062,191.96561199999996,192.48641650000354,192.4796364000067,2,192.4824016000057,192.48641650000354,192.48641650000354,192.97957860000315,192.97957860000315,192.97310430000653,None,192.9731705000013,192.97320210000908,None,,,,,,,,,,,,,006,001,2026-01-21_17h15.16.897,NESC3137_EEG_experiment,,2025.1.1,144.37222624586536,2026-01-21 17h15.35.859043 -0400,
150,0,150,up,None,0.47874559999036137,None,,,150,0,150,0,192.97957860000315,,,,,,,,,,,,,,,,,,,,192.97341530000267,192.97957860000315,193.54912999999942,193.5423434000113,1,193.5449527000019,193.54912999999942,193.54912999999942,194.042712200011,194.042712200011,194.03549419999763,up,194.03553160000592,194.03554609999992,None,0.47874559999036137,None,,,,,,,,,,,006,001,2026-01-21_17h15.16.897,NESC3137_EEG_experiment,,2025.1.1,144.37222624586536,2026-01-21 17h15.35.859043 -0400,
151,0,151,up,None,0.444528399995761,None,,,151,0,151,0,194.042712200011,,,,,,,,,,,,,,,,,,,,194.0356565000111,194.042712200011,195.02324960000988,195.01470410000184,1,195.01777200000652,195.02324960000988,195.02324960000988,195.515739200011,195.515739200011,195.5087210000056,up,195.50875720000477,195.50877149999724,None,0.444528399995761,None,,,,,,,,,,,006,001,2026-01-21_17h15.16.897,NESC3137_EEG_experiment,,2025.1.1,144.37222624586536,2026-01-21 17h15.35.859043 -0400,
152,0,152,None,None,,,,,152,0,152,0,195.515739200011,,,,,,,,,,,,,,,,,,,,195.50887930000317,195.515739200011,196.3554984000075,196.3495738000056,2,196.35234430000128,196.3554984000075,196.3554984000075,196.84830730000976,196.84830730000976,196.84129090000351,None,196.84132160000445,196.8413365000015,None,,,,,,,,,,,,,006,001,2026-01-21_17h15.16.897,NESC3137_EEG_experiment,,2025.1.1,144.37222624586536,2026-01-21 17h15.35.859043 -0400,
153,0,153,None,None,,,,,153,0,153,0,196.84830730000976,,,,,,,,,,,,,,,,,,,,196.84158240001125,196.84830730000976,197.5912185000052,197.58575100000598,1,197.58848279999802,197.5912185000052,197.5912185000052,198.08504170000379,198.08504170000379,198.07892460000585,None,198.07897100000991,198.07900170001085,None,,,,,,,,,,,,,006,001,2026-01-21_17h15.16.897,NESC3137_EEG_experiment,,2025.1.1,144.37222624586536,2026-01-21 17h15.35.859043 -0400,
154,0,154,None,None,,,,,154,0,154,0,198.08504170000379,,,,,,,,,,,,,,,,,,,,198.07916320000368,198.08504170000379,199.00120640000387,198.99441600000137,1,198.99745229999826,199.00120640000387,199.00120640000387,199.49432750001142,199.49432750001142,199.4887485000072,None,199.48882100000628,199.4888476000051,None,,,,,,,,,,,,,006,001,2026-01-21_17h15.16.897,NESC3137_EEG_experiment,,2025.1.1,144.37222624586536,2026-01-21 17h15.35.859043 -0400,
155,0,155,None,None,,,,,155,0,155,0,199.49432750001142,,,,,,,,,,,,,,,,,,,,199.4891226000036,199.49432750001142,200.01634500001092,200.00919150000846,2,200.0120375000115,200.01634500001092,200.01634500001092,200.50834759999998,200.50834759999998,200.50166100000206,None,200.50169380000443,200.5017080000107,None,,,,,,,,,,,,,006,001,2026-01-21_17h15.16.897,NESC3137_EEG_experiment,,2025.1.1,144.37222624586536,2026-01-21 17h15.35.859043 -0400,
156,0,156,down,None,0.4563689000060549,None,,,156,0,156,0,200.50834759999998,,,,,,,,,,,,,,,,,,,,200.5018143000052,200.50834759999998,201.04332389999763,201.03792810000596,2,201.04114660000778,201.04332389999763,201.04332389999763,201.53632020000077,201.53632020000077,201.52953820000403,down,201.52959010000632,201.52961500000674,None,0.4563689000060549,None,,,,,,,,,,,006,001,2026-01-21_17h15.16.897,NESC3137_EEG_experiment,,2025.1.1,144.37222624586536,2026-01-21 17h15.35.859043 -0400,
157,0,157,up,None,0.41474290000041947,None,,,157,0,157,0,201.53632020000077,,,,,,,,,,,,,,,,,,,,201.52977649999957,201.53632020000077,202.09309070000018,202.0859266000043,1,202.0886346000043,202.09309070000018,202.09309070000018,202.58508180000354,202.58508180000354,202.5784427000035,up,202.57849490000808,202.5785237000091,None,0.41474290000041947,None,,,,,,,,,,,006,001,2026-01-21_17h15.16.897,NESC3137_EEG_experiment,,2025.1.1,144.37222624586536,2026-01-21 17h15.35.859043 -0400,
158,0,158,None,None,,,,,158,0,158,0,202.58508180000354,,,,,,,,,,,,,,,,,,,,202.57869150000624,202.58508180000354,203.2944339000096,203.2867399000097,1,203.2892479000002,203.2944339000096,203.2944339000096,203.78775300001143,203.78775300001143,203.78015530000266,None,203.78018640000664,203.7802001000091,None,,,,,,,,,,,,,006,001,2026-01-21_17h15.16.897,NESC3137_EEG_experiment,,2025.1.1,144.37222624586536,2026-01-21 17h15.35.859043 -0400,
159,0,159,None,None,,,,,159,0,159,0,203.78775300001143,,,,,,,,,,,,,,,,,,,,203.78030610000133,203.78775300001143,204.63439720000315,204.62767440000607,1,204.6304672999977,204.63439720000315,204.63439720000315,205.12697630000184,205.12697630000184,205.12022500000603,None,205.12025670000003,205.12027070000477,None,,,,,,,,,,,,,006,001,2026-01-21_17h15.16.897,NESC3137_EEG_experiment,,2025.1.1,144.37222624586536,2026-01-21 17h15.35.859043 -0400,
160,0,160,down,None,0.420069700005115,None,,,160,0,160,0,205.12697630000184,,,,,,,,,,,,,,,,,,,,205.120379400003,205.12697630000184,206.0716209000093,206.06573640000715,2,206.0687171000027,206.0716209000093,206.0716209000093,206.5658287999977,206.5658287999977,206.55837210000027,down,206.55841599999985,206.55843060000916,None,0.420069700005115,None,,,,,,,,,,,006,001,2026-01-21_17h15.16.897,NESC3137_EEG_experiment,,2025.1.1,144.37222624586536,2026-01-21 17h15.35.859043 -0400,
161,0,161,up,None,0.37063819999457337,None,,,161,0,161,0,206.5658287999977,,,,,,,,,,,,,,,,,,,,206.55853750000824,206.5658287999977,207.27303769999708,207.26629670000693,1,207.2693883000029,207.27303769999708,207.27303769999708,207.7668512000091,207.7668512000091,207.75947099999757,up,207.75950620000367,207.75952040000993,None,0.37063819999457337,None,,,,,,,,,,,006,001,2026-01-21_17h15.16.897,NESC3137_EEG_experiment,,2025.1.1,144.37222624586536,2026-01-21 17h15.35.859043 -0400,
162,0,162,down,None,0.46926579999853857,None,,,162,0,162,0,207.7668512000091,,,,,,,,,,,,,,,,,,,,207.75962609999988,207.7668512000091,208.67041070001142,208.66208750000806,2,208.66547459999856,208.67041070001142,208.67041070001142,209.16296960000182,209.16296960000182,209.15543820000312,down,209.15547490000608,209.1554899000039,None,0.46926579999853857,None,,,,,,,,,,,006,001,2026-01-21_17h15.16.897,NESC3137_EEG_experiment,,2025.1.1,144.37222624586536,2026-01-21 17h15.35.859043 -0400,
163,0,163,None,None,,,,,163,0,163,0,209.16296960000182,,,,,,,,,,,,,,,,,,,,209.15559550000762,209.16296960000182,209.8230792000104,209.81517950000125,1,209.81849650001095,209.8230792000104,209.8230792000104,210.31602620000194,210.31602620000194,210.30841660000442,None,210.3084463999985,210.30846030000248,None,,,,,,,,,,,,,006,001,2026-01-21_17h15.16.897,NESC3137_EEG_experiment,,2025.1.1,144.37222624586536,2026-01-21 17h15.35.859043 -0400,
164,0,164,None,None,,,,,164,0,164,0,210.31602620000194,,,,,,,,,,,,,,,,,,,,210.3085687999992,210.31602620000194,211.2332626999996,211.22545720000926,1,211.22782780000125,211.2332626999996,211.2332626999996,211.72630320000462,211.72630320000462,211.7183107000019,None,211.7183425000112,211.71835680000368,None,,,,,,,,,,,,,006,001,2026-01-21_17h15.16.897,NESC3137_EEG_experiment,,2025.1.1,144.37222624586536,2026-01-21 17h15.35.859043 -0400,
165,0,165,down,None,0.4420920999982627,None,,,165,0,165,0,211.72630320000462,,,,,,,,,,,,,,,,,,,,211.71846260000893,211.72630320000462,212.59362720001081,212.58757410000544,2,212.5904190000001,212.59362720001081,212.59362720001081,213.08630740000808,213.08630740000808,213.07957570000144,down,213.07961250000517,213.0796277000045,None,0.4420920999982627,None,,,,,,,,,,,006,001,2026-01-21_17h15.16.897,NESC3137_EEG_experiment,,2025.1.1,144.37222624586536,2026-01-21 17h15.35.859043 -0400,
166,0,166,None,None,,,,,166,0,166,0,213.08630740000808,,,,,,,,,,,,,,,,,,,,213.07973670000501,213.08630740000808,213.58656530000735,213.57956900000863,2,213.58206420000351,213.58656530000735,213.58656530000735,214.0795524999994,214.0795524999994,214.07302770001115,None,214.07309010000608,214.0731123000005,None,,,,,,,,,,,,,006,001,2026-01-21_17h15.16.897,NESC3137_EEG_experiment,,2025.1.1,144.37222624586536,2026-01-21 17h15.35.859043 -0400,
167,0,167,None,None,,,,,167,0,167,0,214.0795524999994,,,,,,,,,,,,,,,,,,,,214.07338830000663,214.0795524999994,214.92682360000617,214.9200775000063,2,214.92305840000336,214.92682360000617,214.92682360000617,215.4204507000104,215.4204507000104,215.4130698000081,None,215.41309990000445,215.41311380000843,None,,,,,,,,,,,,,006,001,2026-01-21_17h15.16.897,NESC3137_EEG_experiment,,2025.1.1,144.37222624586536,2026-01-21 17h15.35.859043 -0400,
168,0,168,down,None,0.4419227999896975,None,,,168,0,168,0,215.4204507000104,,,,,,,,,,,,,,,,,,,,215.41321330000937,215.4204507000104,216.2819915,216.27418249999755,2,216.27698970001074,216.2819915,216.2819915,216.77504010000848,216.77504010000848,216.76746509999793,down,216.76750060000631,216.7675145000103,None,0.4419227999896975,None,,,,,,,,,,,006,001,2026-01-21_17h15.16.897,NESC3137_EEG_experiment,,2025.1.1,144.37222624586536,2026-01-21 17h15.35.859043 -0400,
169,0,169,up,None,0.46697429999767337,None,,,169,0,169,0,216.77504010000848,,,,,,,,,,,,,,,,,,,,216.76761830000032,216.77504010000848,217.71270350000123,217.7050828000065,1,217.70763859999715,217.71270350000123,217.71270350000123,218.20557289999851,218.20557289999851,218.19825080000737,up,218.19830370000273,218.19833080000535,None,0.46697429999767337,None,,,,,,,,,,,006,001,2026-01-21_17h15.16.897,NESC3137_EEG_experiment,,2025.1.1,144.37222624586536,2026-01-21 17h15.35.859043 -0400,
170,0,170,None,None,,,,,170,0,170,0,218.20557289999851,,,,,,,,,,,,,,,,,,,,218.19844200000807,218.20557289999851,218.78145980001136,218.775741999998,1,218.77861520000442,218.78145980001136,218.78145980001136,219.27463759999955,219.27463759999955,219.26881750000757,None,219.26884930000233,219.26886419999937,None,,,,,,,,,,,,,006,001,2026-01-21_17h15.16.897,NESC3137_EEG_experiment,,2025.1.1,144.37222624586536,2026-01-21 17h15.35.859043 -0400,
171,0,171,None,None,,,,,171,0,171,0,219.27463759999955,,,,,,,,,,,,,,,,,,,,219.26897080001072,219.27463759999955,219.90050899999915,219.89364049999858,2,219.89668980000715,219.90050899999915,219.90050899999915,220.3938296999986,220.3938296999986,220.38682980000158,None,220.38686110000708,220.38687539999955,None,,,,,,,,,,,,,006,001,2026-01-21_17h15.16.897,NESC3137_EEG_experiment,,2025.1.1,144.37222624586536,2026-01-21 17h15.35.859043 -0400,
172,0,172,None,None,,,,,172,0,172,0,220.3938296999986,,,,,,,,,,,,,,,,,,,,220.38698160000786,220.3938296999986,220.93542999999772,220.9275498000061,1,220.9300024000113,220.93542999999772,220.93542999999772,221.428104000006,221.428104000006,221.4219707000011,None,221.42200600000797,221.42202030000044,None,,,,,,,,,,,,,006,001,2026-01-21_17h15.16.897,NESC3137_EEG_experiment,,2025.1.1,144.37222624586536,2026-01-21 17h15.35.859043 -0400,
173,0,173,None,None,,,,,173,0,173,0,221.428104000006,,,,,,,,,,,,,,,,,,,,221.42215060000308,221.428104000006,221.95569930000056,221.94969850000052,1,221.9528083000041,221.95569930000056,221.95569930000056,222.44905100000324,222.44905100000324,222.44215450000775,None,222.44220669999777,222.44223890001012,None,,,,,,,,,,,,,006,001,2026-01-21_17h15.16.897,NESC3137_EEG_experiment,,2025.1.1,144.37222624586536,2026-01-21 17h15.35.859043 -0400,
174,0,174,None,None,,,,,174,0,174,0,222.44905100000324,,,,,,,,,,,,,,,,,,,,222.44243500000448,222.44905100000324,223.3725312000024,223.3667465000035,2,223.36955470000976,223.3725312000024,223.3725312000024,223.8666424999974,223.8666424999974,223.86019900000247,None,223.86024000000907,223.86025500000687,None,,,,,,,,,,,,,006,001,2026-01-21_17h15.16.897,NESC3137_EEG_experiment,,2025.1.1,144.37222624586536,2026-01-21 17h15.35.859043 -0400,
175,0,175,None,None,,,,,175,0,175,0,223.8666424999974,,,,,,,,,,,,,,,,,,,,223.86036640001112,223.8666424999974,224.44308250000176,224.43517890000658,1,224.43802120001055,224.44308250000176,224.44308250000176,224.93575060000876,224.93575060000876,224.92839820000518,None,224.92844889999833,224.92848600000434,None,,,,,,,,,,,,,006,001,2026-01-21_17h15.16.897,NESC3137_EEG_experiment,,2025.1.1,144.37222624586536,2026-01-21 17h15.35.859043 -0400,
176,0,176,down,None,0.4314496000006329,None,,,176,0,176,0,224.93575060000876,,,,,,,,,,,,,,,,,,,,224.92867330000445,224.93575060000876,225.7408998000028,225.7342564999999,2,225.73708970000735,225.7408998000028,225.7408998000028,226.23380739999993,226.23380739999993,226.22700630000327,down,226.22704189999786,226.22705549999955,None,0.4314496000006329,None,,,,,,,,,,,006,001,2026-01-21_17h15.16.897,NESC3137_EEG_experiment,,2025.1.1,144.37222624586536,2026-01-21 17h15.35.859043 -0400,
177,0,177,up,None,0.4107485000131419,None,,,177,0,177,0,226.23380739999993,,,,,,,,,,,,,,,,,,,,226.22716049999872,226.23380739999993,226.817272100001,226.81114679999882,1,226.81471010000678,226.817272100001,226.817272100001,227.31218980000995,227.31218980000995,227.30349930000375,up,227.30354140000418,227.30357560000266,None,0.4107485000131419,None,,,,,,,,,,,006,001,2026-01-21_17h15.16.897,NESC3137_EEG_experiment,,2025.1.1,144.37222624586536,2026-01-21 17h15.35.859043 -0400,
178,0,178,down,None,0.3890086000028532,None,,,178,0,178,0,227.31218980000995,,,,,,,,,,,,,,,,,,,,227.3036909000075,227.31218980000995,228.06266999999934,228.05489080000552,2,228.05966759999865,228.06266999999934,228.06266999999934,228.55351230000088,228.55351230000088,228.548080499997,down,228.5481346000015,228.54814860000624,None,0.3890086000028532,None,,,,,,,,,,,006,001,2026-01-21_17h15.16.897,NESC3137_EEG_experiment,,2025.1.1,144.37222624586536,2026-01-21 17h15.35.859043 -0400,
179,0,179,up,None,0.3709511999913957,None,,,179,0,179,0,228.55351230000088,,,,,,,,,,,,,,,,,,,,228.54825680000067,228.55351230000088,229.29665980000573,229.28988840000238,1,229.29285870000604,229.29665980000573,229.29665980000573,229.79036640000413,229.79036640000413,229.78313710000657,up,229.78318510000827,229.7832003000076,None,0.3709511999913957,None,,,,,,,,,,,006,001,2026-01-21_17h15.16.897,NESC3137_EEG_experiment,,2025.1.1,144.37222624586536,2026-01-21 17h15.35.859043 -0400,
180,0,180,up,None,0.455344599991804,None,,,180,0,180,0,229.79036640000413,,,,,,,,,,,,,,,,,,,,229.78331610000168,229.79036640000413,230.75626799999736,230.74974820000352,1,230.75346010000794,230.75626799999736,230.75626799999736,231.24845220000134,231.24845220000134,231.24162330001127,up,231.2416605000035,231.241675199999,None,0.455344599991804,None,,,,,,,,,,,006,001,2026-01-21_17h15.16.897,NESC3137_EEG_experiment,,2025.1.1,144.37222624586536,2026-01-21 17h15.35.859043 -0400,
181,0,181,up,None,0.3854295000055572,None,,,181,0,181,0,231.24845220000134,,,,,,,,,,,,,,,,,,,,231.24178330000723,231.24845220000134,231.9782841999986,231.9705976999976,1,231.97297070000786,231.9782841999986,231.9782841999986,232.47068379999837,232.47068379999837,232.46492520000902,up,232.46496440000192,232.46497860000818,None,0.3854295000055572,None,,,,,,,,,,,006,001,2026-01-21_17h15.16.897,NESC3137_EEG_experiment,,2025.1.1,144.37222624586536,2026-01-21 17h15.35.859043 -0400,
182,0,182,down,None,0.4013148999947589,None,,,182,0,182,0,232.47068379999837,,,,,,,,,,,,,,,,,,,,232.4650924000016,232.47068379999837,233.29841300001135,233.29110790000414,2,233.2935676000052,233.29841300001135,233.29841300001135,233.79104609999922,233.79104609999922,233.783617100009,down,233.783668700009,233.78369570001087,None,0.4013148999947589,None,,,,,,,,,,,006,001,2026-01-21_17h15.16.897,NESC3137_EEG_experiment,,2025.1.1,144.37222624586536,2026-01-21 17h15.35.859043 -0400,
183,0,183,None,None,,,,,183,0,183,0,233.79104609999922,,,,,,,,,,,,,,,,,,,,233.78385710000293,233.79104609999922,234.61830719999853,234.6101834000001,2,234.6131669000024,234.61830719999853,234.61830719999853,235.1109770000039,235.1109770000039,235.10320189999766,None,235.103231400004,235.10324540000875,None,,,,,,,,,,,,,006,001,2026-01-21_17h15.16.897,NESC3137_EEG_experiment,,2025.1.1,144.37222624586536,2026-01-21 17h15.35.859043 -0400,
184,0,184,None,None,,,,,184,0,184,0,235.1109770000039,,,,,,,,,,,,,,,,,,,,235.10334310001053,235.1109770000039,235.71416560000216,235.70878510001057,2,235.71202669999911,235.71416560000216,235.71416560000216,236.20746070001042,236.20746070001042,236.2015173999971,None,236.20157180000388,236.2015953000082,None,,,,,,,,,,,,,006,001,2026-01-21_17h15.16.897,NESC3137_EEG_experiment,,2025.1.1,144.37222624586536,2026-01-21 17h15.35.859043 -0400,
185,0,185,None,None,,,,,185,0,185,0,236.20746070001042,,,,,,,,,,,,,,,,,,,,236.20173860000796,236.20746070001042,236.76313669999945,236.75716710000415,2,236.76048120000632,236.76313669999945,236.76313669999945,237.25598000000173,237.25598000000173,237.24940010000137,None,237.24942950000695,237.24944379999943,None,,,,,,,,,,,,,006,001,2026-01-21_17h15.16.897,NESC3137_EEG_experiment,,2025.1.1,144.37222624586536,2026-01-21 17h15.35.859043 -0400,
186,0,186,down,None,0.4371125000034226,None,,,186,0,186,0,237.25598000000173,,,,,,,,,,,,,,,,,,,,237.24954289999732,237.25598000000173,237.7909792999999,237.7840381999995,2,237.78691830000025,237.7909792999999,237.7909792999999,238.284004000001,238.284004000001,238.27853250000044,down,238.2785748000024,238.27859050000552,None,0.4371125000034226,None,,,,,,,,,,,006,001,2026-01-21_17h15.16.897,NESC3137_EEG_experiment,,2025.1.1,144.37222624586536,2026-01-21 17h15.35.859043 -0400,
187,0,187,down,None,0.4160346999997273,None,,,187,0,187,0,238.284004000001,,,,,,,,,,,,,,,,,,,,238.2787160000007,238.284004000001,239.23567500000354,239.2286446000071,2,239.23208210000303,239.23567500000354,239.23567500000354,239.72946770000271,239.72946770000271,239.72291890000633,down,239.7229812000005,239.7230084000039,None,0.4160346999997273,None,,,,,,,,,,,006,001,2026-01-21_17h15.16.897,NESC3137_EEG_experiment,,2025.1.1,144.37222624586536,2026-01-21 17h15.35.859043 -0400,
188,0,188,down,None,0.3335153999942122,None,,,188,0,188,0,239.72946770000271,,,,,,,,,,,,,,,,,,,,239.7231848000083,239.72946770000271,240.48608060000697,240.4806072000065,2,240.48408710000513,240.48608060000697,240.48608060000697,240.97933020000346,240.97933020000346,240.9719802000036,down,240.97201959999802,240.97203360000276,None,0.3335153999942122,None,,,,,,,,,,,006,001,2026-01-21_17h15.16.897,NESC3137_EEG_experiment,,2025.1.1,144.37222624586536,2026-01-21 17h15.35.859043 -0400,
189,0,189,up,None,0.4289373999927193,None,,,189,0,189,0,240.97933020000346,,,,,,,,,,,,,,,,,,,,240.97213940000802,240.97933020000346,241.90265689999796,241.89656000000832,1,241.8998819999979,241.90265689999796,241.90265689999796,242.39553090000118,242.39553090000118,242.38887750000868,up,242.3889293000102,242.38895550000598,None,0.4289373999927193,None,,,,,,,,,,,006,001,2026-01-21_17h15.16.897,NESC3137_EEG_experiment,,2025.1.1,144.37222624586536,2026-01-21 17h15.35.859043 -0400,
190,0,190,up,None,0.37528999999631196,None,,,190,0,190,0,242.39553090000118,,,,,,,,,,,,,,,,,,,,242.38911489999737,242.39553090000118,243.30021750000014,243.29163960000733,1,243.2941048000066,243.30021750000014,243.30021750000014,243.7918830999988,243.7918830999988,243.7848898000084,up,243.78493120000348,243.78494569999748,None,0.37528999999631196,None,,,,,,,,,,,006,001,2026-01-21_17h15.16.897,NESC3137_EEG_experiment,,2025.1.1,144.37222624586536,2026-01-21 17h15.35.859043 -0400,
191,0,191,down,None,0.43192059999273624,None,,,191,0,191,0,243.7918830999988,,,,,,,,,,,,,,,,,,,,243.7850608000008,243.7918830999988,244.56370140000945,244.55566440000257,2,244.55828589999874,244.56370140000945,244.56370140000945,245.05561989999842,245.05561989999842,245.04881900000328,down,245.04887410000083,245.04890090000117,None,0.43192059999273624,None,,,,,,,,,,,006,001,2026-01-21_17h15.16.897,NESC3137_EEG_experiment,,2025.1.1,144.37222624586536,2026-01-21 17h15.35.859043 -0400,
192,0,192,None,None,,,,,192,0,192,0,245.05561989999842,,,,,,,,,,,,,,,,,,,,245.04906360000314,245.05561989999842,245.78268119999848,245.77087760000722,2,245.77951570000732,245.78268119999848,245.78268119999848,,,246.27105710000615,None,246.27109530000598,246.27111250000598,None,,,,,,,,,,,,,006,001,2026-01-21_17h15.16.897,NESC3137_EEG_experiment,,2025.1.1,144.37222624586536,2026-01-21 17h15.35.859043 -0400,
193,0,193,up,None,0.4257606999890413,None,,,193,0,193,0,246.27878740000597,,,,,,,,,,,,,,,,,,,,246.27123189999838,246.27878740000597,247.2098285000102,247.2026373999979,1,247.20546209999884,247.2098285000102,247.2098285000102,247.7017918000056,247.7017918000056,247.6948529000074,up,247.6949050999974,247.69494329999725,None,0.4257606999890413,None,,,,,,,,,,,006,001,2026-01-21_17h15.16.897,NESC3137_EEG_experiment,,2025.1.1,144.37222624586536,2026-01-21 17h15.35.859043 -0400,
194,0,194,None,None,,,,,194,0,194,0,247.7017918000056,,,,,,,,,,,,,,,,,,,,247.6951010000048,247.7017918000056,248.26464280000073,248.25766940000176,2,248.26050920000125,248.26464280000073,248.26464280000073,248.75740960000257,248.75740960000257,248.75070699999924,None,248.75074529999983,248.75075960000686,None,,,,,,,,,,,,,006,001,2026-01-21_17h15.16.897,NESC3137_EEG_experiment,,2025.1.1,144.37222624586536,2026-01-21 17h15.35.859043 -0400,
195,0,195,up,None,0.4169970000075409,None,,,195,0,195,0,248.75740960000257,,,,,,,,,,,,,,,,,,,,248.7508649000083,248.75740960000257,249.41857140000502,249.4105200000049,1,249.41313050000463,249.41857140000502,249.41857140000502,249.9113609000051,249.9113609000051,249.90414030000102,up,249.90417680000246,249.9041908000072,None,0.4169970000075409,None,,,,,,,,,,,006,001,2026-01-21_17h15.16.897,NESC3137_EEG_experiment,,2025.1.1,144.37222624586536,2026-01-21 17h15.35.859043 -0400,
196,0,196,down,None,0.3275339000101667,0.13600210000004154,,,196,0,196,0,249.9113609000051,,,,,,,,,,,,,,,,,,,,249.90429920000315,249.9113609000051,250.45210080000106,250.44588070000464,1,250.4490239000006,250.45210080000106,250.45210080000106,250.94520970000303,250.94520970000303,250.93853510000918,down,250.93857050000224,250.938585099997,None,0.3275339000101667,0.13600210000004154,,,,,,,,,,,006,001,2026-01-21_17h15.16.897,NESC3137_EEG_experiment,,2025.1.1,144.37222624586536,2026-01-21 17h15.35.859043 -0400,
197,0,197,down,None,0.4070267000060994,None,,,197,0,197,0,250.94520970000303,,,,,,,,,,,,,,,,,,,,250.9386916000076,250.94520970000303,251.9245460000093,251.9117438000103,2,251.9227125000034,251.9245460000093,251.9245460000093,252.41855509999732,252.41855509999732,252.4116240000003,down,252.4116600999987,252.41167620000488,None,0.4070267000060994,None,,,,,,,,,,,006,001,2026-01-21_17h15.16.897,NESC3137_EEG_experiment,,2025.1.1,144.37222624586536,2026-01-21 17h15.35.859043 -0400,
198,0,198,up,None,0.3503847000101814,0.11230109998723492,,,198,0,198,0,252.41855509999732,,,,,,,,,,,,,,,,,,,,252.41181830001005,252.41855509999732,253.24516640001093,253.2384555000026,1,253.24193750000268,253.24516640001093,253.24516640001093,253.73814990000392,253.73814990000392,253.7315002000105,up,253.7315651000099,253.73158000000694,None,0.3503847000101814,0.11230109998723492,,,,,,,,,,,006,001,2026-01-21_17h15.16.897,NESC3137_EEG_experiment,,2025.1.1,144.37222624586536,2026-01-21 17h15.35.859043 -0400,
199,0,199,up,None,0.38797329999215435,None,,,199,0,199,0,253.73814990000392,,,,,,,,,,,,,,,,,,,,253.73169880000933,253.73814990000392,254.70428869999887,254.69674590000068,1,254.6997667000105,254.70428869999887,254.70428869999887,255.19643560000986,255.19643560000986,255.19131809999817,up,255.19136880000588,255.19139670000004,None,0.38797329999215435,None,,,,,,,,,,,006,001,2026-01-21_17h15.16.897,NESC3137_EEG_experiment,,2025.1.1,144.37222624586536,2026-01-21 17h15.35.859043 -0400,
200,0,200,None,space,,,3.1241695000062464,None,200,0,200,0,255.19643560000986,,,,,,,,,,,,,,,,,,,,255.19154990000243,255.19643560000986,256.1555406999978,256.1484210000053,2,256.15138570001,256.1555406999978,256.1555406999978,256.64932209999824,256.64932209999824,256.64176260000386,None,256.6418102000025,289.7642324000044,space,,,256.64932209999824,286.6393243000057,286.6393243000057,286.6454883999977,3.1241695000062464,None,,,,,006,001,2026-01-21_17h15.16.897,NESC3137_EEG_experiment,,2025.1.1,144.37222624586536,2026-01-21 17h15.35.859043 -0400,
201,0,201,None,None,,,,,201,0,201,0,289.7702633000008,,,,,,,,,,,,,,,,,,,,289.76436100000865,289.7702633000008,290.44291680000606,290.43063560000155,1,290.439921600002,290.44291680000606,290.44291680000606,,,290.9307758000068,None,290.93081590000656,290.93083409999963,None,,,,,,,,,,,,,006,001,2026-01-21_17h15.16.897,NESC3137_EEG_experiment,,2025.1.1,144.37222624586536,2026-01-21 17h15.35.859043 -0400,
202,0,202,None,None,,,,,202,0,202,0,290.937342899997,,,,,,,,,,,,,,,,,,,,290.9309527000005,290.937342899997,291.45807950000744,291.45120720000705,2,291.4556267000007,291.45807950000744,291.45807950000744,291.9514338000008,291.9514338000008,291.9454112000094,None,291.9454420000111,291.9454562000028,None,,,,,,,,,,,,,006,001,2026-01-21_17h15.16.897,NESC3137_EEG_experiment,,2025.1.1,144.37222624586536,2026-01-21 17h15.35.859043 -0400,
203,0,203,up,None,0.4201262999995379,None,,,203,0,203,0,291.9514338000008,,,,,,,,,,,,,,,,,,,,291.94555770000443,291.9514338000008,292.91144320000603,292.90347250000923,1,292.9083299000049,292.91144320000603,292.91144320000603,293.4032969000109,293.4032969000109,293.3967124000046,up,293.39675140001054,293.3967668000114,None,0.4201262999995379,None,,,,,,,,,,,006,001,2026-01-21_17h15.16.897,NESC3137_EEG_experiment,,2025.1.1,144.37222624586536,2026-01-21 17h15.35.859043 -0400,
204,0,204,None,None,,,,,204,0,204,0,293.4032969000109,,,,,,,,,,,,,,,,,,,,293.3968998000055,293.4032969000109,293.91049660000135,293.90349860000424,2,293.90793820000545,293.91049660000135,293.91049660000135,294.40309510000225,294.40309510000225,294.3973152000108,None,294.39736440000706,294.3973817000078,None,,,,,,,,,,,,,006,001,2026-01-21_17h15.16.897,NESC3137_EEG_experiment,,2025.1.1,144.37222624586536,2026-01-21 17h15.35.859043 -0400,
205,0,205,None,None,,,,,205,0,205,0,294.40309510000225,,,,,,,,,,,,,,,,,,,,294.39753260000725,294.40309510000225,294.92387179999787,294.9171434000018,1,294.92111570001,294.92387179999787,294.92387179999787,295.41704060000484,295.41704060000484,295.41149040000164,None,295.41152059999877,295.411534400002,None,,,,,,,,,,,,,006,001,2026-01-21_17h15.16.897,NESC3137_EEG_experiment,,2025.1.1,144.37222624586536,2026-01-21 17h15.35.859043 -0400,
206,0,206,down,None,0.35980669999844395,None,,,206,0,206,0,295.41704060000484,,,,,,,,,,,,,,,,,,,,295.4116333999991,295.41704060000484,296.2517618999991,296.2435078999988,2,296.24796239999705,296.2517618999991,296.2517618999991,296.74352770000405,296.74352770000405,296.73705530000734,down,296.7371278000064,296.73715490000905,None,0.35980669999844395,None,,,,,,,,,,,006,001,2026-01-21_17h15.16.897,NESC3137_EEG_experiment,,2025.1.1,144.37222624586536,2026-01-21 17h15.35.859043 -0400,
207,0,207,up,None,0.4008355000114534,None,,,207,0,207,0,296.74352770000405,,,,,,,,,,,,,,,,,,,,296.737326100003,296.74352770000405,297.5787030000065,297.57041919999756,1,297.5747985000053,297.5787030000065,297.5787030000065,298.0709637000109,298.0709637000109,298.0643803999992,up,298.06448180000007,298.0645114000072,None,0.4008355000114534,None,,,,,,,,,,,006,001,2026-01-21_17h15.16.897,NESC3137_EEG_experiment,,2025.1.1,144.37222624586536,2026-01-21 17h15.35.859043 -0400,
208,0,208,None,None,,,,,208,0,208,0,298.0709637000109,,,,,,,,,,,,,,,,,,,,298.06470689999696,298.0709637000109,298.7021625000052,298.6965404000075,1,298.700064500008,298.7021625000052,298.7021625000052,299.1955083000066,299.1955083000066,299.1887174000003,None,299.1887643000082,299.188790900007,None,,,,,,,,,,,,,006,001,2026-01-21_17h15.16.897,NESC3137_EEG_experiment,,2025.1.1,144.37222624586536,2026-01-21 17h15.35.859043 -0400,
209,0,209,up,None,0.41873600000690203,None,,,209,0,209,0,299.1955083000066,,,,,,,,,,,,,,,,,,,,299.18895000001066,299.1955083000066,300.05670500000997,300.04953470001055,1,300.05337059999874,300.05670500000997,300.05670500000997,300.54956250000396,300.54956250000396,300.54283489999943,up,300.5428729999985,300.5428874000063,None,0.41873600000690203,None,,,,,,,,,,,006,001,2026-01-21_17h15.16.897,NESC3137_EEG_experiment,,2025.1.1,144.37222624586536,2026-01-21 17h15.35.859043 -0400,
210,0,210,None,None,,,,,210,0,210,0,300.54956250000396,,,,,,,,,,,,,,,,,,,,300.54299630000605,300.54956250000396,301.0720643000095,301.0638142000098,2,301.068792799997,301.0720643000095,301.0720643000095,301.5639108000032,301.5639108000032,301.5579609999986,None,301.55802570001106,301.5580580000096,None,,,,,,,,,,,,,006,001,2026-01-21_17h15.16.897,NESC3137_EEG_experiment,,2025.1.1,144.37222624586536,2026-01-21 17h15.35.859043 -0400,
211,0,211,None,None,,,,,211,0,211,0,301.5639108000032,,,,,,,,,,,,,,,,,,,,301.55826309999975,301.5639108000032,302.084677699997,302.07757150000543,2,302.0828956000041,302.084677699997,302.084677699997,302.5786555000086,302.5786555000086,302.57062790000055,None,302.5706602999999,302.57067420000385,None,,,,,,,,,,,,,006,001,2026-01-21_17h15.16.897,NESC3137_EEG_experiment,,2025.1.1,144.37222624586536,2026-01-21 17h15.35.859043 -0400,
212,0,212,None,None,,,,,212,0,212,0,302.5786555000086,,,,,,,,,,,,,,,,,,,,302.5707858000096,302.5786555000086,303.55107030000363,303.54377139999997,1,303.5469080000039,303.55107030000363,303.55107030000363,304.0429989999975,304.0429989999975,304.0362218000082,None,304.0362524000084,304.03626639999857,None,,,,,,,,,,,,,006,001,2026-01-21_17h15.16.897,NESC3137_EEG_experiment,,2025.1.1,144.37222624586536,2026-01-21 17h15.35.859043 -0400,
