thisN,thisTrialN,thisRepN,key_resp_3.keys,key_resp_3.rt,key_resp_3.duration,key_resp_4.keys,key_resp_4.rt,key_resp_4.duration,trials.thisRepN,trials.thisTrialN,trials.thisN,trials.thisIndex,thisRow.t,notes,lsl_stream.started,lsl_stream.stopped,setup.started,setup.stopped,welcome.started,welcomeimg.started,key_resp.started,welcome.stopped,key_resp.keys,key_resp.rt,key_resp.duration,instruction.started,instructionimg.started,key_resp_2.started,instruction.stopped,key_resp_2.keys,key_resp_2.rt,key_resp_2.duration,fixation.started,cross.started,cross.stopped,fixation.stopped,trigger,face.started,faceStim.started,key_resp_3.started,faceStim.stopped,key_resp_3.stopped,face.stopped,trials.key_resp_3.keys,trials.key_resp_3.rt,trials.key_resp_3.duration,break_2.started,break_2.stopped,trials.key_resp_4.keys,breakimg.started,breakimg.stopped,break2img.started,key_resp_4.started,trials.key_resp_4.rt,trials.key_resp_4.duration,end.started,finish.started,finish.stopped,end.stopped,participant,session,date,expName,expVersion,psychopyVersion,frameRate,expStart,
,,,,,,,,,,,,,,,0.15894310001749545,0.15901910001412034,,,,,,,,,,,,,,,,,,,,,,,,,,,,,,,,,,,,,,,,,,,,sub-012,001,2026-01-28_17h21.22.316,NESC3137_EEG_experiment,,2025.2.4,236.98423342924994,2026-01-28 17h21.22.710117 -0400,
,,,,,,,,,,,,,,,,,0.15903680003248155,0.15905960008967668,,,,,,,,,,,,,,,,,,,,,,,,,,,,,,,,,,,,,,,,,,sub-012,001,2026-01-28_17h21.22.316,NESC3137_EEG_experiment,,2025.2.4,236.98423342924994,2026-01-28 17h21.22.710117 -0400,
,,,,,,,,,,,,,,,,,,,0.1591093000024557,0.16442500008270144,0.16442500008270144,17.44831760006491,space,17.276010799920186,None,,,,,,,,,,,,,,,,,,,,,,,,,,,,,,,,,,,sub-012,001,2026-01-28_17h21.22.316,NESC3137_EEG_experiment,,2025.2.4,236.98423342924994,2026-01-28 17h21.22.710117 -0400,
,,,,,,,,,,,,,,,,,,,,,,,,,,17.44835530000273,17.45122320007067,17.45122320007067,24.692650700104423,space,7.236228200024925,None,,,,,,,,,,,,,,,,,,,,,,,,,,,,sub-012,001,2026-01-28_17h21.22.316,NESC3137_EEG_experiment,,2025.2.4,236.98423342924994,2026-01-28 17h21.22.710117 -0400,
0,0,0,up,0.3797387999948114,None,None,,,0,0,0,0,24.695783500093967,,,,,,,,,,,,,,,,,,,,24.693832600023597,24.695783500093967,25.26137110008858,25.256169000058435,1,25.258888800046407,25.26137110008858,25.26137110008858,25.756186100072227,25.756186100072227,25.747714600060135,up,0.3797387999948114,None,25.74775680003222,25.747777500073425,None,,,,,,,,,,,sub-012,001,2026-01-28_17h21.22.316,NESC3137_EEG_experiment,,2025.2.4,236.98423342924994,2026-01-28 17h21.22.710117 -0400,
1,0,1,up,0.3921226999955252,None,None,,,1,0,1,0,25.756186100072227,,,,,,,,,,,,,,,,,,,,25.74792780005373,25.756186100072227,26.447471800027415,26.443592500058003,1,26.445373700000346,26.447471800027415,26.447471800027415,26.936333600082435,26.936333600082435,26.935420499998145,up,0.3921226999955252,None,26.935460500069894,26.935478800092824,None,,,,,,,,,,,sub-012,001,2026-01-28_17h21.22.316,NESC3137_EEG_experiment,,2025.2.4,236.98423342924994,2026-01-28 17h21.22.710117 -0400,
2,0,2,None,,,None,,,2,0,2,0,26.936333600082435,,,,,,,,,,,,,,,,,,,,26.93559540004935,26.936333600082435,27.820317700039595,27.814574300078675,2,27.816975200083107,27.820317700039595,27.820317700039595,28.310015200055204,28.310015200055204,28.305984900100157,None,,,28.306026700069197,28.30605050001759,None,,,,,,,,,,,sub-012,001,2026-01-28_17h21.22.316,NESC3137_EEG_experiment,,2025.2.4,236.98423342924994,2026-01-28 17h21.22.710117 -0400,
3,0,3,None,,,None,,,3,0,3,0,28.310015200055204,,,,,,,,,,,,,,,,,,,,28.30653090006672,28.310015200055204,28.95219660003204,28.947711300104856,1,28.950557500007562,28.95219660003204,28.95219660003204,29.439478400046937,29.439478400046937,29.435093700070865,None,,,29.43513040000107,29.435148900025524,None,,,,,,,,,,,sub-012,001,2026-01-28_17h21.22.316,NESC3137_EEG_experiment,,2025.2.4,236.98423342924994,2026-01-28 17h21.22.710117 -0400,
4,0,4,down,0.389934099977836,None,None,,,4,0,4,0,29.439478400046937,,,,,,,,,,,,,,,,,,,,29.435270700021647,29.439478400046937,30.101661700056866,30.097617899999022,2,30.099812400061637,30.101661700056866,30.101661700056866,30.589628200046718,30.589628200046718,30.585123000084423,down,0.389934099977836,None,30.58517600002233,30.585207700030878,None,,,,,,,,,,,sub-012,001,2026-01-28_17h21.22.316,NESC3137_EEG_experiment,,2025.2.4,236.98423342924994,2026-01-28 17h21.22.710117 -0400,
5,0,5,down,0.35627069999463856,None,None,,,5,0,5,0,30.589628200046718,,,,,,,,,,,,,,,,,,,,30.585332400049083,30.589628200046718,31.131229100050405,31.12750430009328,2,31.12982400006149,31.131229100050405,31.131229100050405,31.618381000007503,31.618381000007503,31.614303300040774,down,0.35627069999463856,None,31.614343199995346,31.614359400002286,None,,,,,,,,,,,sub-012,001,2026-01-28_17h21.22.316,NESC3137_EEG_experiment,,2025.2.4,236.98423342924994,2026-01-28 17h21.22.710117 -0400,
6,0,6,down,0.4121060000034049,0.01060560008045286,None,,,6,0,6,0,31.618381000007503,,,,,,,,,,,,,,,,,,,,31.61449300008826,31.618381000007503,32.14468750008382,32.139955800026655,1,32.1434102000203,32.14468750008382,32.14468750008382,32.63516210007947,32.63516210007947,32.631692100083455,down,0.4121060000034049,0.01060560008045286,32.63173720007762,32.631756300106645,None,,,,,,,,,,,sub-012,001,2026-01-28_17h21.22.316,NESC3137_EEG_experiment,,2025.2.4,236.98423342924994,2026-01-28 17h21.22.710117 -0400,
7,0,7,down,0.4096668000565842,None,None,,,7,0,7,0,32.63516210007947,,,,,,,,,,,,,,,,,,,,32.63191930006724,32.63516210007947,33.618349399999715,33.614521800074726,2,33.61668400000781,33.618349399999715,33.618349399999715,34.10594320006203,34.10594320006203,34.101949400035664,down,0.4096668000565842,None,34.10199210001156,34.10201120004058,None,,,,,,,,,,,sub-012,001,2026-01-28_17h21.22.316,NESC3137_EEG_experiment,,2025.2.4,236.98423342924994,2026-01-28 17h21.22.710117 -0400,
8,0,8,up,0.3312818999402225,0.13889830000698566,None,,,8,0,8,0,34.10594320006203,,,,,,,,,,,,,,,,,,,,34.10213130002376,34.10594320006203,34.6807946000481,34.676921500009485,2,34.67890170007013,34.6807946000481,34.6807946000481,35.168352400069125,35.168352400069125,35.164300100062974,up,0.3312818999402225,0.13889830000698566,35.16434080002364,35.164358900045045,None,,,,,,,,,,,sub-012,001,2026-01-28_17h21.22.316,NESC3137_EEG_experiment,,2025.2.4,236.98423342924994,2026-01-28 17h21.22.710117 -0400,
9,0,9,up,0.40402709995396435,None,None,,,9,0,9,0,35.168352400069125,,,,,,,,,,,,,,,,,,,,35.16448100004345,35.168352400069125,36.00734140002169,36.002242500078864,1,36.00571540009696,36.00734140002169,36.00734140002169,36.49784540000837,36.49784540000837,36.49363010004163,up,0.40402709995396435,None,36.493671800009906,36.49368840001989,None,,,,,,,,,,,sub-012,001,2026-01-28_17h21.22.316,NESC3137_EEG_experiment,,2025.2.4,236.98423342924994,2026-01-28 17h21.22.710117 -0400,
10,0,10,down,0.34342389996163547,None,None,,,10,0,10,0,36.49784540000837,,,,,,,,,,,,,,,,,,,,36.49380410008598,36.49784540000837,37.05590280005708,37.04797720001079,2,37.04988820001017,37.05590280005708,37.05590280005708,37.54337950004265,37.54337950004265,37.53950070007704,down,0.34342389996163547,None,37.539549000095576,37.53956810000818,None,,,,,,,,,,,sub-012,001,2026-01-28_17h21.22.316,NESC3137_EEG_experiment,,2025.2.4,236.98423342924994,2026-01-28 17h21.22.710117 -0400,
11,0,11,up,0.300187399960123,0.06038839998655021,None,,,11,0,11,0,37.54337950004265,,,,,,,,,,,,,,,,,,,,37.53971460007597,37.54337950004265,38.49527549999766,38.48929950001184,2,38.49321930005681,38.49527549999766,38.49527549999766,38.985172800021246,38.985172800021246,38.9822356000077,up,0.300187399960123,0.06038839998655021,38.98227700009011,38.982294400106184,None,,,,,,,,,,,sub-012,001,2026-01-28_17h21.22.316,NESC3137_EEG_experiment,,2025.2.4,236.98423342924994,2026-01-28 17h21.22.710117 -0400,
12,0,12,down,0.29892229998949915,None,None,,,12,0,12,0,38.985172800021246,,,,,,,,,,,,,,,,,,,,38.98242030001711,38.985172800021246,39.8715931000188,39.864985699998215,2,39.86687770008575,39.8715931000188,39.8715931000188,40.36010150006041,40.36010150006041,40.356346400105394,down,0.29892229998949915,None,40.356391000095755,40.35640980000608,None,,,,,,,,,,,sub-012,001,2026-01-28_17h21.22.316,NESC3137_EEG_experiment,,2025.2.4,236.98423342924994,2026-01-28 17h21.22.710117 -0400,
13,0,13,up,0.3859463999979198,None,None,,,13,0,13,0,40.36010150006041,,,,,,,,,,,,,,,,,,,,40.356597600039095,40.36010150006041,41.14322770002764,41.13970640010666,1,41.14177810004912,41.14322770002764,41.14322770002764,41.630946599994786,41.630946599994786,41.626752000069246,up,0.3859463999979198,None,41.62679190002382,41.62680900003761,None,,,,,,,,,,,sub-012,001,2026-01-28_17h21.22.316,NESC3137_EEG_experiment,,2025.2.4,236.98423342924994,2026-01-28 17h21.22.710117 -0400,
14,0,14,down,0.3566233000019565,None,None,,,14,0,14,0,41.630946599994786,,,,,,,,,,,,,,,,,,,,41.62696260004304,41.630946599994786,42.43953380000312,42.43552380008623,2,42.43818180006929,42.43953380000312,42.43953380000312,42.92776089999825,42.92776089999825,42.92291750002187,down,0.3566233000019565,None,42.922958000097424,42.922989900107495,None,,,,,,,,,,,sub-012,001,2026-01-28_17h21.22.316,NESC3137_EEG_experiment,,2025.2.4,236.98423342924994,2026-01-28 17h21.22.710117 -0400,
15,0,15,None,,,None,,,15,0,15,0,42.92776089999825,,,,,,,,,,,,,,,,,,,,42.92311050009448,42.92776089999825,43.55220380006358,43.54773250001017,1,43.54997200006619,43.55220380006358,43.55220380006358,44.03909239999484,44.03909239999484,44.03539620002266,None,,,44.03544000000693,44.03546270006336,None,,,,,,,,,,,sub-012,001,2026-01-28_17h21.22.316,NESC3137_EEG_experiment,,2025.2.4,236.98423342924994,2026-01-28 17h21.22.710117 -0400,
16,0,16,down,0.3924693000735715,None,None,,,16,0,16,0,44.03909239999484,,,,,,,,,,,,,,,,,,,,44.035584500059485,44.03909239999484,44.63115670008119,44.62703370000236,2,44.62979930010624,44.63115670008119,44.63115670008119,45.11837780009955,45.11837780009955,45.11463230010122,down,0.3924693000735715,None,45.11467870010529,45.11470050003845,None,,,,,,,,,,,sub-012,001,2026-01-28_17h21.22.316,NESC3137_EEG_experiment,,2025.2.4,236.98423342924994,2026-01-28 17h21.22.710117 -0400,
17,0,17,up,0.45188800001051277,None,None,,,17,0,17,0,45.11837780009955,,,,,,,,,,,,,,,,,,,,45.11482050002087,45.11837780009955,45.63505340006668,45.63115430006292,1,45.63305240008049,45.63505340006668,45.63505340006668,46.12270230008289,46.12270230008289,46.11850860004779,up,0.45188800001051277,None,46.118552200030535,46.11857000004966,None,,,,,,,,,,,sub-012,001,2026-01-28_17h21.22.316,NESC3137_EEG_experiment,,2025.2.4,236.98423342924994,2026-01-28 17h21.22.710117 -0400,
18,0,18,up,0.42728200007695705,None,None,,,18,0,18,0,46.12270230008289,,,,,,,,,,,,,,,,,,,,46.11873580003157,46.12270230008289,46.664069100050256,46.66052240005229,1,46.66262270009611,46.664069100050256,46.664069100050256,47.152062300010584,47.152062300010584,47.14755120000336,up,0.42728200007695705,None,47.14758960006293,47.14762090006843,None,,,,,,,,,,,sub-012,001,2026-01-28_17h21.22.316,NESC3137_EEG_experiment,,2025.2.4,236.98423342924994,2026-01-28 17h21.22.710117 -0400,
19,0,19,None,,,None,,,19,0,19,0,47.152062300010584,,,,,,,,,,,,,,,,,,,,47.14773890003562,47.152062300010584,47.85177790001035,47.847598700085655,1,47.84953970008064,47.85177790001035,47.85177790001035,48.33923290006351,48.33923290006351,48.33508150000125,None,,,48.335117700044066,48.335135300061665,None,,,,,,,,,,,sub-012,001,2026-01-28_17h21.22.316,NESC3137_EEG_experiment,,2025.2.4,236.98423342924994,2026-01-28 17h21.22.710117 -0400,
20,0,20,down,0.4256181000964716,None,None,,,20,0,20,0,48.33923290006351,,,,,,,,,,,,,,,,,,,,48.335256800055504,48.33923290006351,49.214092800044455,49.20621630002279,2,49.20877180004027,49.214092800044455,49.214092800044455,49.701817400055006,49.701817400055006,49.69774640002288,down,0.4256181000964716,None,49.697788599994965,49.69780650001485,None,,,,,,,,,,,sub-012,001,2026-01-28_17h21.22.316,NESC3137_EEG_experiment,,2025.2.4,236.98423342924994,2026-01-28 17h21.22.710117 -0400,
21,0,21,up,0.32563089998438954,None,None,,,21,0,21,0,49.701817400055006,,,,,,,,,,,,,,,,,,,,49.697921900078654,49.701817400055006,50.30649079999421,50.30186020000838,1,50.30399010004476,50.30649079999421,50.30649079999421,50.79346070007887,50.79346070007887,50.7894788000267,up,0.32563089998438954,None,50.78951960010454,50.78953750000801,None,,,,,,,,,,,sub-012,001,2026-01-28_17h21.22.316,NESC3137_EEG_experiment,,2025.2.4,236.98423342924994,2026-01-28 17h21.22.710117 -0400,
22,0,22,up,0.22493610007222742,0.11622649990022182,None,,,22,0,22,0,50.79346070007887,,,,,,,,,,,,,,,,,,,,50.78965869999956,50.79346070007887,51.42246170004364,51.41874110000208,2,51.42102170002181,51.42246170004364,51.42246170004364,51.90995020000264,51.90995020000264,51.90641450008843,up,0.22493610007222742,0.11622649990022182,51.906457300065085,51.90647580008954,None,,,,,,,,,,,sub-012,001,2026-01-28_17h21.22.316,NESC3137_EEG_experiment,,2025.2.4,236.98423342924994,2026-01-28 17h21.22.710117 -0400,
23,0,23,up,0.4311741000274196,None,None,,,23,0,23,0,51.90995020000264,,,,,,,,,,,,,,,,,,,,51.906595900072716,51.90995020000264,52.573351100087166,52.56860770005733,1,52.57207550003659,52.573351100087166,52.573351100087166,53.059962400002405,53.059962400002405,53.056592200067826,up,0.4311741000274196,None,53.056636000052094,53.056653000065126,None,,,,,,,,,,,sub-012,001,2026-01-28_17h21.22.316,NESC3137_EEG_experiment,,2025.2.4,236.98423342924994,2026-01-28 17h21.22.710117 -0400,
24,0,24,down,0.3530611000023782,None,None,,,24,0,24,0,53.059962400002405,,,,,,,,,,,,,,,,,,,,53.05679510009941,53.059962400002405,54.04748810001183,54.0393114000326,2,54.042287999996915,54.04748810001183,54.04748810001183,54.534944600076415,54.534944600076415,54.53123180009425,down,0.3530611000023782,None,54.531273400061764,54.531290500075556,None,,,,,,,,,,,sub-012,001,2026-01-28_17h21.22.316,NESC3137_EEG_experiment,,2025.2.4,236.98423342924994,2026-01-28 17h21.22.710117 -0400,
25,0,25,up,0.3373118999879807,0.06340570002794266,None,,,25,0,25,0,54.534944600076415,,,,,,,,,,,,,,,,,,,,54.531418500002474,54.534944600076415,55.439273399999365,55.43091320001986,2,55.43280420009978,55.439273399999365,55.439273399999365,55.92657900007907,55.92657900007907,55.923168800072744,up,0.3373118999879807,0.06340570002794266,55.92320960003417,55.92322740005329,None,,,,,,,,,,,sub-012,001,2026-01-28_17h21.22.316,NESC3137_EEG_experiment,,2025.2.4,236.98423342924994,2026-01-28 17h21.22.710117 -0400,
26,0,26,down,0.4650753000751138,None,None,,,26,0,26,0,55.92657900007907,,,,,,,,,,,,,,,,,,,,55.92349380010273,55.92657900007907,56.53516000008676,56.52693450008519,2,56.529062100104056,56.53516000008676,56.53516000008676,57.02476370008662,57.02476370008662,57.018850499996915,down,0.4650753000751138,None,57.018891300074756,57.01890840008855,None,,,,,,,,,,,sub-012,001,2026-01-28_17h21.22.316,NESC3137_EEG_experiment,,2025.2.4,236.98423342924994,2026-01-28 17h21.22.710117 -0400,
27,0,27,up,0.3946210000431165,None,None,,,27,0,27,0,57.02476370008662,,,,,,,,,,,,,,,,,,,,57.019060100079514,57.02476370008662,57.73512030008715,57.73115150001831,1,57.73320710007101,57.73512030008715,57.73512030008715,58.222455300041474,58.222455300041474,58.21854290005285,up,0.3946210000431165,None,58.21858190000057,58.21859850001056,None,,,,,,,,,,,sub-012,001,2026-01-28_17h21.22.316,NESC3137_EEG_experiment,,2025.2.4,236.98423342924994,2026-01-28 17h21.22.710117 -0400,
28,0,28,down,0.4121646999847144,None,None,,,28,0,28,0,58.222455300041474,,,,,,,,,,,,,,,,,,,,58.21889840008225,58.222455300041474,58.84740190010052,58.84340160002466,2,58.84594130003825,58.84740190010052,58.84740190010052,59.335114300018176,59.335114300018176,59.33118800004013,down,0.4121646999847144,None,59.33123220002744,59.33125100005418,None,,,,,,,,,,,sub-012,001,2026-01-28_17h21.22.316,NESC3137_EEG_experiment,,2025.2.4,236.98423342924994,2026-01-28 17h21.22.710117 -0400,
29,0,29,None,,,None,,,29,0,29,0,59.335114300018176,,,,,,,,,,,,,,,,,,,,59.33142130007036,59.335114300018176,59.96406000002753,59.9607414000202,1,59.96265570004471,59.96406000002753,59.96406000002753,60.451631400035694,60.451631400035694,60.44826900004409,None,,,60.44831460004207,60.44834190001711,None,,,,,,,,,,,sub-012,001,2026-01-28_17h21.22.316,NESC3137_EEG_experiment,,2025.2.4,236.98423342924994,2026-01-28 17h21.22.710117 -0400,
30,0,30,up,0.44887749990448356,None,None,,,30,0,30,0,60.451631400035694,,,,,,,,,,,,,,,,,,,,60.44853500009049,60.451631400035694,61.306484800064936,61.301944700069726,1,61.30556390003767,61.306484800064936,61.306484800064936,61.79329110006802,61.79329110006802,61.789356200024486,up,0.44887749990448356,None,61.78940790006891,61.78942440007813,None,,,,,,,,,,,sub-012,001,2026-01-28_17h21.22.316,NESC3137_EEG_experiment,,2025.2.4,236.98423342924994,2026-01-28 17h21.22.710117 -0400,
31,0,31,down,0.24656619993038476,0.17155430000275373,None,,,31,0,31,0,61.79329110006802,,,,,,,,,,,,,,,,,,,,61.78954250004608,61.79329110006802,62.29733920004219,62.29365250002593,1,62.29566820000764,62.29733920004219,62.29733920004219,62.7851718000602,62.7851718000602,62.7810826000059,down,0.24656619993038476,0.17155430000275373,62.78112250007689,62.78113880008459,None,,,,,,,,,,,sub-012,001,2026-01-28_17h21.22.316,NESC3137_EEG_experiment,,2025.2.4,236.98423342924994,2026-01-28 17h21.22.710117 -0400,
32,0,32,None,,,None,,,32,0,32,0,62.7851718000602,,,,,,,,,,,,,,,,,,,,62.781311900005676,62.7851718000602,63.57136150007136,63.564190500066616,1,63.567961500026286,63.57136150007136,63.57136150007136,64.05994500010274,64.05994500010274,64.0560968000209,None,,,64.05613360006828,64.05614990007598,None,,,,,,,,,,,sub-012,001,2026-01-28_17h21.22.316,NESC3137_EEG_experiment,,2025.2.4,236.98423342924994,2026-01-28 17h21.22.710117 -0400,
33,0,33,up,0.2847530000144616,None,None,,,33,0,33,0,64.05994500010274,,,,,,,,,,,,,,,,,,,,64.05626840004697,64.05994500010274,64.65989570005331,64.65626850002445,1,64.65837070008274,64.65989570005331,64.65989570005331,65.14738080010284,65.14738080010284,65.14380150008947,up,0.2847530000144616,None,65.14386450010352,65.14388200000394,None,,,,,,,,,,,sub-012,001,2026-01-28_17h21.22.316,NESC3137_EEG_experiment,,2025.2.4,236.98423342924994,2026-01-28 17h21.22.710117 -0400,
34,0,34,down,0.4378447000635788,None,None,,,34,0,34,0,65.14738080010284,,,,,,,,,,,,,,,,,,,,65.1440027001081,65.14738080010284,65.81822920008563,65.81430500000715,2,65.8165205999976,65.81822920008563,65.81822920008563,66.30579670006409,66.30579670006409,66.30192110000644,down,0.4378447000635788,None,66.30196120007895,66.30197890009731,None,,,,,,,,,,,sub-012,001,2026-01-28_17h21.22.316,NESC3137_EEG_experiment,,2025.2.4,236.98423342924994,2026-01-28 17h21.22.710117 -0400,
35,0,35,down,0.4303871999727562,None,None,,,35,0,35,0,66.30579670006409,,,,,,,,,,,,,,,,,,,,66.30209880007897,66.30579670006409,67.0772720000241,67.07255500007886,2,67.07600480003748,67.0772720000241,67.0772720000241,67.56406520004384,67.56406520004384,67.56024120002985,down,0.4303871999727562,None,67.56028040009551,67.56029779999517,None,,,,,,,,,,,sub-012,001,2026-01-28_17h21.22.316,NESC3137_EEG_experiment,,2025.2.4,236.98423342924994,2026-01-28 17h21.22.710117 -0400,
36,0,36,down,0.2880657999776304,None,None,,,36,0,36,0,67.56406520004384,,,,,,,,,,,,,,,,,,,,67.56042820005678,67.56406520004384,68.18505760002881,68.18093300005421,2,68.18269140005577,68.18505760002881,68.18505760002881,68.67240280006081,68.67240280006081,68.66863700002432,down,0.2880657999776304,None,68.66868320002686,68.66870010003913,None,,,,,,,,,,,sub-012,001,2026-01-28_17h21.22.316,NESC3137_EEG_experiment,,2025.2.4,236.98423342924994,2026-01-28 17h21.22.710117 -0400,
37,0,37,up,0.427566499914974,None,None,,,37,0,37,0,68.67240280006081,,,,,,,,,,,,,,,,,,,,68.66881830000784,68.67240280006081,69.23627960006706,69.231121800025,1,69.2346252000425,69.23627960006706,69.23627960006706,69.72671400010586,69.72671400010586,69.72243270010222,up,0.427566499914974,None,69.72247090004385,69.72248720005155,None,,,,,,,,,,,sub-012,001,2026-01-28_17h21.22.316,NESC3137_EEG_experiment,,2025.2.4,236.98423342924994,2026-01-28 17h21.22.710117 -0400,
38,0,38,down,0.4270638999296352,None,None,,,38,0,38,0,69.72671400010586,,,,,,,,,,,,,,,,,,,,69.72259670007043,69.72671400010586,70.48563880007714,70.48107610002626,2,70.48444200004451,70.48563880007714,70.48563880007714,70.9725859001046,70.9725859001046,70.96830460010096,down,0.4270638999296352,None,70.96834520006087,70.9683627000777,None,,,,,,,,,,,sub-012,001,2026-01-28_17h21.22.316,NESC3137_EEG_experiment,,2025.2.4,236.98423342924994,2026-01-28 17h21.22.710117 -0400,
39,0,39,up,0.38101260003168136,None,None,,,39,0,39,0,70.9725859001046,,,,,,,,,,,,,,,,,,,,70.96849710005336,70.9725859001046,71.62649640010204,71.62286180001684,2,71.62502240005415,71.62649640010204,71.62649640010204,72.11425120010972,72.11425120010972,72.11023210000712,up,0.38101260003168136,None,72.1102710000705,72.11028880008962,None,,,,,,,,,,,sub-012,001,2026-01-28_17h21.22.316,NESC3137_EEG_experiment,,2025.2.4,236.98423342924994,2026-01-28 17h21.22.710117 -0400,
40,0,40,up,0.4025969000067562,None,None,,,40,0,40,0,72.11425120010972,,,,,,,,,,,,,,,,,,,,72.11041550000664,72.11425120010972,72.97337800008245,72.96844460000284,2,72.97209130006377,72.97337800008245,72.97337800008245,73.45997750002425,73.45997750002425,73.45609000010882,up,0.4025969000067562,None,73.45613160007633,73.45615030010231,None,,,,,,,,,,,sub-012,001,2026-01-28_17h21.22.316,NESC3137_EEG_experiment,,2025.2.4,236.98423342924994,2026-01-28 17h21.22.710117 -0400,
41,0,41,None,,,None,,,41,0,41,0,73.45997750002425,,,,,,,,,,,,,,,,,,,,73.45627230009995,73.45997750002425,74.1571178000886,74.15236340009142,2,74.15590000001248,74.1571178000886,74.1571178000886,74.64320500008762,74.64320500008762,74.6402654000558,None,,,74.64030150009785,74.64031909999903,None,,,,,,,,,,,sub-012,001,2026-01-28_17h21.22.316,NESC3137_EEG_experiment,,2025.2.4,236.98423342924994,2026-01-28 17h21.22.710117 -0400,
42,0,42,down,0.45254149998072535,None,None,,,42,0,42,0,74.64320500008762,,,,,,,,,,,,,,,,,,,,74.64043970010243,74.64320500008762,75.25684500008356,75.25174420000985,2,75.25549210002646,75.25684500008356,75.25684500008356,75.74321600003168,75.74321600003168,75.74022710009012,down,0.45254149998072535,None,75.74026660004165,75.74029010010418,None,,,,,,,,,,,sub-012,001,2026-01-28_17h21.22.316,NESC3137_EEG_experiment,,2025.2.4,236.98423342924994,2026-01-28 17h21.22.710117 -0400,
43,0,43,down,0.3598924999823794,None,None,,,43,0,43,0,75.74321600003168,,,,,,,,,,,,,,,,,,,,75.74040510004852,75.74321600003168,76.34347520000301,76.33499300002586,2,76.33703290007543,76.34347520000301,76.34347520000301,76.83074420003686,76.83074420003686,76.82701640005689,down,0.3598924999823794,None,76.82705660001375,76.82707310002297,None,,,,,,,,,,,sub-012,001,2026-01-28_17h21.22.316,NESC3137_EEG_experiment,,2025.2.4,236.98423342924994,2026-01-28 17h21.22.710117 -0400,
44,0,44,down,0.2942665000446141,None,None,,,44,0,44,0,76.83074420003686,,,,,,,,,,,,,,,,,,,,76.82719110010657,76.83074420003686,77.48925660003442,77.48494100000244,2,77.48689759999979,77.48925660003442,77.48925660003442,77.9767726000864,77.9767726000864,77.97278940002434,down,0.2942665000446141,None,77.97283010010142,77.97284669999499,None,,,,,,,,,,,sub-012,001,2026-01-28_17h21.22.316,NESC3137_EEG_experiment,,2025.2.4,236.98423342924994,2026-01-28 17h21.22.710117 -0400,
45,0,45,None,,,None,,,45,0,45,0,77.9767726000864,,,,,,,,,,,,,,,,,,,,77.97296510008164,77.9767726000864,78.8904253001092,78.88519400008954,1,78.88891840004362,78.8904253001092,78.8904253001092,79.38081750005949,79.38081750005949,79.37795190000907,None,,,79.37798800005112,79.378005900071,None,,,,,,,,,,,sub-012,001,2026-01-28_17h21.22.316,NESC3137_EEG_experiment,,2025.2.4,236.98423342924994,2026-01-28 17h21.22.710117 -0400,
46,0,46,down,0.3600593999726698,None,None,,,46,0,46,0,79.38081750005949,,,,,,,,,,,,,,,,,,,,79.37824350001756,79.38081750005949,80.3514479000587,80.3476899000816,2,80.34980250010267,80.3514479000587,80.3514479000587,80.8392117000185,80.8392117000185,80.8362097000936,down,0.3600593999726698,None,80.83625760010909,80.8362767000217,None,,,,,,,,,,,sub-012,001,2026-01-28_17h21.22.316,NESC3137_EEG_experiment,,2025.2.4,236.98423342924994,2026-01-28 17h21.22.710117 -0400,
47,0,47,down,0.4625285000074655,None,None,,,47,0,47,0,80.8392117000185,,,,,,,,,,,,,,,,,,,,80.83640810009092,80.8392117000185,81.37325649999548,81.36836670001503,2,81.37197870004456,81.37325649999548,81.37325649999548,81.86023460002616,81.86023460002616,81.85625549999531,down,0.4625285000074655,None,81.85636150010396,81.85637890000362,None,,,,,,,,,,,sub-012,001,2026-01-28_17h21.22.316,NESC3137_EEG_experiment,,2025.2.4,236.98423342924994,2026-01-28 17h21.22.710117 -0400,
48,0,48,down,0.3381184000754729,None,None,,,48,0,48,0,81.86023460002616,,,,,,,,,,,,,,,,,,,,81.85649880010169,81.86023460002616,82.6773406000575,82.67369429999962,2,82.67604410008062,82.6773406000575,82.6773406000575,83.16399430006277,83.16399430006277,83.16033450001851,down,0.3381184000754729,None,83.16043970000464,83.16045930003747,None,,,,,,,,,,,sub-012,001,2026-01-28_17h21.22.316,NESC3137_EEG_experiment,,2025.2.4,236.98423342924994,2026-01-28 17h21.22.710117 -0400,
49,0,49,down,0.3719640999333933,None,None,,,49,0,49,0,83.16399430006277,,,,,,,,,,,,,,,,,,,,83.16071530000772,83.16399430006277,83.7194897000445,83.71447930007707,2,83.71799550007563,83.7194897000445,83.7194897000445,84.20986850000918,84.20986850000918,84.20629040000495,down,0.3719640999333933,None,84.20633240009192,84.20637330005411,None,,,,,,,,,,,sub-012,001,2026-01-28_17h21.22.316,NESC3137_EEG_experiment,,2025.2.4,236.98423342924994,2026-01-28 17h21.22.710117 -0400,
50,0,50,down,0.29173219995573163,None,None,,,50,0,50,0,84.20986850000918,,,,,,,,,,,,,,,,,,,,84.20649670006242,84.20986850000918,85.04784400004428,85.03956560010556,2,85.04195650003385,85.04784400004428,85.04784400004428,85.53517889999785,85.53517889999785,85.53085460001603,down,0.29173219995573163,None,85.53089280007407,85.53090920008253,None,,,,,,,,,,,sub-012,001,2026-01-28_17h21.22.316,NESC3137_EEG_experiment,,2025.2.4,236.98423342924994,2026-01-28 17h21.22.710117 -0400,
51,0,51,down,0.3107912999112159,None,None,,,51,0,51,0,85.53517889999785,,,,,,,,,,,,,,,,,,,,85.53104920010082,85.53517889999785,86.18062780005857,86.1769621000858,2,86.17937630007509,86.18062780005857,86.18062780005857,86.66823260008823,86.66823260008823,86.66422610008158,down,0.3107912999112159,None,86.66426530003082,86.66428150003776,None,,,,,,,,,,,sub-012,001,2026-01-28_17h21.22.316,NESC3137_EEG_experiment,,2025.2.4,236.98423342924994,2026-01-28 17h21.22.710117 -0400,
52,0,52,down,0.3240739000029862,None,None,,,52,0,52,0,86.66823260008823,,,,,,,,,,,,,,,,,,,,86.66439460008405,86.66823260008823,87.4957476001,87.4891850000713,2,87.4928470000159,87.4957476001,87.4957476001,87.98487720009871,87.98487720009871,87.98091350006871,down,0.3240739000029862,None,87.9809518000111,87.98096790001728,None,,,,,,,,,,,sub-012,001,2026-01-28_17h21.22.316,NESC3137_EEG_experiment,,2025.2.4,236.98423342924994,2026-01-28 17h21.22.710117 -0400,
53,0,53,up,0.4552824000129476,None,None,,,53,0,53,0,87.98487720009871,,,,,,,,,,,,,,,,,,,,87.98107900004834,87.98487720009871,88.55214260006323,88.54753169999458,1,88.55074310000055,88.55214260006323,88.55214260006323,89.03931160003413,89.03931160003413,89.03525600000285,up,0.4552824000129476,None,89.03529400005937,89.03530850005336,None,,,,,,,,,,,sub-012,001,2026-01-28_17h21.22.316,NESC3137_EEG_experiment,,2025.2.4,236.98423342924994,2026-01-28 17h21.22.710117 -0400,
54,0,54,down,0.43488800001796335,None,None,,,54,0,54,0,89.03931160003413,,,,,,,,,,,,,,,,,,,,89.0354220001027,89.03931160003413,89.58903560007457,89.58510370005388,2,89.5872547000181,89.58903560007457,89.58903560007457,90.07676890003495,90.07676890003495,90.07345080003142,down,0.43488800001796335,None,90.0734902000986,90.0735069999937,None,,,,,,,,,,,sub-012,001,2026-01-28_17h21.22.316,NESC3137_EEG_experiment,,2025.2.4,236.98423342924994,2026-01-28 17h21.22.710117 -0400,
55,0,55,up,0.3407201999798417,None,None,,,55,0,55,0,90.07676890003495,,,,,,,,,,,,,,,,,,,,90.07362800010014,90.07676890003495,90.94841200008523,90.94358000007924,1,90.94714850001037,90.94841200008523,90.94841200008523,91.43925749999471,91.43925749999471,91.4352535000071,up,0.3407201999798417,None,91.43530620005913,91.43533380003646,None,,,,,,,,,,,sub-012,001,2026-01-28_17h21.22.316,NESC3137_EEG_experiment,,2025.2.4,236.98423342924994,2026-01-28 17h21.22.710117 -0400,
56,0,56,down,0.35265989997424185,None,None,,,56,0,56,0,91.43925749999471,,,,,,,,,,,,,,,,,,,,91.4354597000638,91.43925749999471,91.9389797000913,91.93501480005216,2,91.93704850005452,91.9389797000913,91.9389797000913,92.42656260007061,92.42656260007061,92.4231676000636,down,0.35265989997424185,None,92.42320620000828,92.42322190001141,None,,,,,,,,,,,sub-012,001,2026-01-28_17h21.22.316,NESC3137_EEG_experiment,,2025.2.4,236.98423342924994,2026-01-28 17h21.22.710117 -0400,
57,0,57,up,0.3485316999722272,None,None,,,57,0,57,0,92.42656260007061,,,,,,,,,,,,,,,,,,,,92.42333360004704,92.42656260007061,92.9348716000095,92.93085870007053,1,92.93283420009539,92.9348716000095,92.9348716000095,93.42264020000584,93.42264020000584,93.41833300003782,up,0.3485316999722272,None,93.4183706000913,93.4183874001028,None,,,,,,,,,,,sub-012,001,2026-01-28_17h21.22.316,NESC3137_EEG_experiment,,2025.2.4,236.98423342924994,2026-01-28 17h21.22.710117 -0400,
58,0,58,down,0.43897649995051324,None,None,,,58,0,58,0,93.42264020000584,,,,,,,,,,,,,,,,,,,,93.41852609999478,93.42264020000584,94.00147750007454,93.99778630002402,2,93.99977019999642,94.00147750007454,94.00147750007454,94.4889995000558,94.4889995000558,94.48520049999934,down,0.43897649995051324,None,94.48523680004291,94.48525280004833,None,,,,,,,,,,,sub-012,001,2026-01-28_17h21.22.316,NESC3137_EEG_experiment,,2025.2.4,236.98423342924994,2026-01-28 17h21.22.710117 -0400,
59,0,59,up,0.276027699932456,None,None,,,59,0,59,0,94.4889995000558,,,,,,,,,,,,,,,,,,,,94.48536200006492,94.4889995000558,95.38489690003917,95.37758610001765,1,95.37956830009352,95.38489690003917,95.38489690003917,95.87267490010709,95.87267490010709,95.86898150003981,up,0.276027699932456,None,95.86904680007137,95.86906530009583,None,,,,,,,,,,,sub-012,001,2026-01-28_17h21.22.316,NESC3137_EEG_experiment,,2025.2.4,236.98423342924994,2026-01-28 17h21.22.710117 -0400,
60,0,60,up,0.37270109995733947,None,None,,,60,0,60,0,95.87267490010709,,,,,,,,,,,,,,,,,,,,95.86919540003873,95.87267490010709,96.53064480004832,96.52691980008967,1,96.5293458000524,96.53064480004832,96.53064480004832,97.01836170000024,97.01836170000024,97.01417780003976,up,0.37270109995733947,None,97.01421610009857,97.01423270010855,None,,,,,,,,,,,sub-012,001,2026-01-28_17h21.22.316,NESC3137_EEG_experiment,,2025.2.4,236.98423342924994,2026-01-28 17h21.22.710117 -0400,
61,0,61,down,0.47293310007080436,None,None,,,61,0,61,0,97.01836170000024,,,,,,,,,,,,,,,,,,,,97.01434780005366,97.01836170000024,97.69456520001404,97.6890881001018,1,97.69341589999385,97.69456520001404,97.69456520001404,98.18486120004673,98.18486120004673,98.1808267000597,down,0.47293310007080436,None,98.18089360010345,98.18091280001681,None,,,,,,,,,,,sub-012,001,2026-01-28_17h21.22.316,NESC3137_EEG_experiment,,2025.2.4,236.98423342924994,2026-01-28 17h21.22.710117 -0400,
62,0,62,None,,,None,,,62,0,62,0,98.18486120004673,,,,,,,,,,,,,,,,,,,,98.18103810003959,98.18486120004673,99.15279750002082,99.14755800005514,2,99.15137680002954,99.15279750002082,99.15279750002082,99.64317650010344,99.64317650010344,99.63979080005083,None,,,99.63982450007461,99.63984220009297,None,,,,,,,,,,,sub-012,001,2026-01-28_17h21.22.316,NESC3137_EEG_experiment,,2025.2.4,236.98423342924994,2026-01-28 17h21.22.710117 -0400,
63,0,63,None,,,None,,,63,0,63,0,99.64317650010344,,,,,,,,,,,,,,,,,,,,99.63995920005254,99.64317650010344,100.50570120010525,100.50193940009922,2,100.50431570003275,100.50570120010525,100.50570120010525,100.99768030003179,100.99768030003179,100.98918160004541,None,,,100.9892163000768,100.9892334000906,None,,,,,,,,,,,sub-012,001,2026-01-28_17h21.22.316,NESC3137_EEG_experiment,,2025.2.4,236.98423342924994,2026-01-28 17h21.22.710117 -0400,
64,0,64,None,,,None,,,64,0,64,0,100.99768030003179,,,,,,,,,,,,,,,,,,,,100.98937630001456,100.99768030003179,101.54007340001408,101.53510160010774,2,101.53877159999683,101.54007340001408,101.54007340001408,102.03089769999497,102.03089769999497,102.02663790003862,None,,,102.02667220006697,102.02669750002678,None,,,,,,,,,,,sub-012,001,2026-01-28_17h21.22.316,NESC3137_EEG_experiment,,2025.2.4,236.98423342924994,2026-01-28 17h21.22.710117 -0400,
65,0,65,up,0.4406995999161154,None,None,,,65,0,65,0,102.03089769999497,,,,,,,,,,,,,,,,,,,,102.02681150007993,102.03089769999497,102.75158080004621,102.74771570006851,1,102.74973720009439,102.75158080004621,102.75158080004621,103.23913570004515,103.23913570004515,103.23504340008367,up,0.4406995999161154,None,103.23508360004053,103.23509980004746,None,,,,,,,,,,,sub-012,001,2026-01-28_17h21.22.316,NESC3137_EEG_experiment,,2025.2.4,236.98423342924994,2026-01-28 17h21.22.710117 -0400,
66,0,66,down,0.38600950001273304,None,None,,,66,0,66,0,103.23913570004515,,,,,,,,,,,,,,,,,,,,103.23522140004206,103.23913570004515,104.18935370002873,104.18498810008168,2,104.18712650006637,104.18935370002873,104.18935370002873,104.67667850002181,104.67667850002181,104.67246330005582,down,0.38600950001273304,None,104.67250700003933,104.67252420005389,None,,,,,,,,,,,sub-012,001,2026-01-28_17h21.22.316,NESC3137_EEG_experiment,,2025.2.4,236.98423342924994,2026-01-28 17h21.22.710117 -0400,
67,0,67,up,0.40927950001787394,None,None,,,67,0,67,0,104.67667850002181,,,,,,,,,,,,,,,,,,,,104.6726437000325,104.67667850002181,105.36260800005402,105.35605580010451,1,105.35953680006787,105.36260800005402,105.36260800005402,105.85211740003433,105.85211740003433,105.84751710004639,up,0.40927950001787394,None,105.84755760000553,105.84758160007186,None,,,,,,,,,,,sub-012,001,2026-01-28_17h21.22.316,NESC3137_EEG_experiment,,2025.2.4,236.98423342924994,2026-01-28 17h21.22.710117 -0400,
68,0,68,None,,,None,,,68,0,68,0,105.85211740003433,,,,,,,,,,,,,,,,,,,,105.84770160005428,105.85211740003433,106.49314860010054,106.4891762000043,2,106.4915777000133,106.49314860010054,106.49314860010054,106.98083040001802,106.98083040001802,106.97657370008528,None,,,106.97660710010678,106.97662440000568,None,,,,,,,,,,,sub-012,001,2026-01-28_17h21.22.316,NESC3137_EEG_experiment,,2025.2.4,236.98423342924994,2026-01-28 17h21.22.710117 -0400,
69,0,69,up,0.2848209999501705,None,None,,,69,0,69,0,106.98083040001802,,,,,,,,,,,,,,,,,,,,106.97673710004892,106.98083040001802,107.85181760007981,107.8475383000914,1,107.84959220001474,107.85181760007981,107.85181760007981,108.33915870008059,108.33915870008059,108.3352294000797,up,0.2848209999501705,None,108.33531380002387,108.3353321000468,None,,,,,,,,,,,sub-012,001,2026-01-28_17h21.22.316,NESC3137_EEG_experiment,,2025.2.4,236.98423342924994,2026-01-28 17h21.22.710117 -0400,
70,0,70,up,0.3997201999882236,None,None,,,70,0,70,0,108.33915870008059,,,,,,,,,,,,,,,,,,,,108.33572830003686,108.33915870008059,109.05573190003633,109.05186190002132,1,109.05394900008105,109.05573190003633,109.05573190003633,109.54321900010109,109.54321900010109,109.53906340000685,up,0.3997201999882236,None,109.53910170006566,109.53911750006955,None,,,,,,,,,,,sub-012,001,2026-01-28_17h21.22.316,NESC3137_EEG_experiment,,2025.2.4,236.98423342924994,2026-01-28 17h21.22.710117 -0400,
71,0,71,down,0.397589199943468,None,None,,,71,0,71,0,109.54321900010109,,,,,,,,,,,,,,,,,,,,109.53923920006491,109.54321900010109,110.2978160000639,110.29348840005696,2,110.29548339999747,110.2978160000639,110.2978160000639,110.78484030009713,110.78484030009713,110.78094930003863,down,0.397589199943468,None,110.78098480007611,110.78099970007315,None,,,,,,,,,,,sub-012,001,2026-01-28_17h21.22.316,NESC3137_EEG_experiment,,2025.2.4,236.98423342924994,2026-01-28 17h21.22.710117 -0400,
72,0,72,down,0.3822079999372363,None,None,,,72,0,72,0,110.78484030009713,,,,,,,,,,,,,,,,,,,,110.78111090010498,110.78484030009713,111.39323650009464,111.38921370008029,2,111.39128360000905,111.39323650009464,111.39323650009464,111.88074500008952,111.88074500008952,111.87664750008844,down,0.3822079999372363,None,111.87669380009174,111.87671290000435,None,,,,,,,,,,,sub-012,001,2026-01-28_17h21.22.316,NESC3137_EEG_experiment,,2025.2.4,236.98423342924994,2026-01-28 17h21.22.710117 -0400,
73,0,73,up,0.44423929997719824,None,None,,,73,0,73,0,111.88074500008952,,,,,,,,,,,,,,,,,,,,111.87683470000047,111.88074500008952,112.5233894000994,112.51874390000012,1,112.52228380006272,112.5233894000994,112.5233894000994,113.0097839999944,113.0097839999944,113.00597739999648,up,0.44423929997719824,None,113.00601610005833,113.00603440008126,None,,,,,,,,,,,sub-012,001,2026-01-28_17h21.22.316,NESC3137_EEG_experiment,,2025.2.4,236.98423342924994,2026-01-28 17h21.22.710117 -0400,
74,0,74,down,0.3514031999511644,None,None,,,74,0,74,0,113.0097839999944,,,,,,,,,,,,,,,,,,,,113.0061476000119,113.0097839999944,113.98155730008148,113.97655900008976,2,113.98016150004696,113.98155730008148,113.98155730008148,114.46832240000367,114.46832240000367,114.46464640006889,down,0.3514031999511644,None,114.46468960004859,114.46470760006923,None,,,,,,,,,,,sub-012,001,2026-01-28_17h21.22.316,NESC3137_EEG_experiment,,2025.2.4,236.98423342924994,2026-01-28 17h21.22.710117 -0400,
75,0,75,up,0.3278886000625789,None,None,,,75,0,75,0,114.46832240000367,,,,,,,,,,,,,,,,,,,,114.46504999999888,114.46832240000367,115.25151630002074,115.24750240007415,1,115.24951330001932,115.25151630002074,115.25151630002074,115.7389040000271,115.7389040000271,115.73512430000119,up,0.3278886000625789,None,115.73516100004781,115.7351776000578,None,,,,,,,,,,,sub-012,001,2026-01-28_17h21.22.316,NESC3137_EEG_experiment,,2025.2.4,236.98423342924994,2026-01-28 17h21.22.710117 -0400,
76,0,76,up,0.46513969998341054,None,None,,,76,0,76,0,115.7389040000271,,,,,,,,,,,,,,,,,,,,115.73529070010409,115.7389040000271,116.70319310005289,116.69845920009539,1,116.70199720002711,116.70319310005289,116.70319310005289,117.19316470006015,117.19316470006015,117.18958390003536,up,0.46513969998341054,None,117.18961980007589,117.18970400001854,None,,,,,,,,,,,sub-012,001,2026-01-28_17h21.22.316,NESC3137_EEG_experiment,,2025.2.4,236.98423342924994,2026-01-28 17h21.22.710117 -0400,
77,0,77,None,,,None,,,77,0,77,0,117.19316470006015,,,,,,,,,,,,,,,,,,,,117.18996940006036,117.19316470006015,117.73653820005711,117.73128390009515,1,117.7352619000012,117.73653820005711,117.73653820005711,118.22223990003113,118.22223990003113,118.21955989999697,None,,,118.21959470002912,118.21961110003758,None,,,,,,,,,,,sub-012,001,2026-01-28_17h21.22.316,NESC3137_EEG_experiment,,2025.2.4,236.98423342924994,2026-01-28 17h21.22.710117 -0400,
78,0,78,None,,,None,,,78,0,78,0,118.22223990003113,,,,,,,,,,,,,,,,,,,,118.21983320009895,118.22223990003113,118.8099632000085,118.8060047000181,2,118.8078577000415,118.8099632000085,118.8099632000085,119.29733070009388,119.29733070009388,119.29358590010088,None,,,119.29362380004022,119.29364160005935,None,,,,,,,,,,,sub-012,001,2026-01-28_17h21.22.316,NESC3137_EEG_experiment,,2025.2.4,236.98423342924994,2026-01-28 17h21.22.710117 -0400,
79,0,79,up,0.39937919995281845,None,None,,,79,0,79,0,119.29733070009388,,,,,,,,,,,,,,,,,,,,119.29376380005851,119.29733070009388,119.83622840000317,119.83075530000497,1,119.83260890003294,119.83622840000317,119.83622840000317,120.32645280007273,120.32645280007273,120.32266440009698,up,0.39937919995281845,None,120.32270260003861,120.32271890004631,None,,,,,,,,,,,sub-012,001,2026-01-28_17h21.22.316,NESC3137_EEG_experiment,,2025.2.4,236.98423342924994,2026-01-28 17h21.22.710117 -0400,
80,0,80,up,0.3480615000007674,None,None,,,80,0,80,0,120.32645280007273,,,,,,,,,,,,,,,,,,,,120.32283220009413,120.32645280007273,121.04822320002131,121.0437007000437,1,121.04703160002828,121.04822320002131,121.04822320002131,121.53483710007276,121.53483710007276,121.53104790009093,up,0.3480615000007674,None,121.53109160007443,121.53112980001606,None,,,,,,,,,,,sub-012,001,2026-01-28_17h21.22.316,NESC3137_EEG_experiment,,2025.2.4,236.98423342924994,2026-01-28 17h21.22.710117 -0400,
81,0,81,up,0.34778510010801256,None,None,,,81,0,81,0,121.53483710007276,,,,,,,,,,,,,,,,,,,,121.53130310005508,121.53483710007276,122.05179739999585,122.0435752000194,1,122.04596180003136,122.05179739999585,122.05179739999585,122.53921590000391,122.53921590000391,122.5348396000918,up,0.34778510010801256,None,122.53487650002353,122.53491970000323,None,,,,,,,,,,,sub-012,001,2026-01-28_17h21.22.316,NESC3137_EEG_experiment,,2025.2.4,236.98423342924994,2026-01-28 17h21.22.710117 -0400,
82,0,82,down,0.36496880010236055,None,None,,,82,0,82,0,122.53921590000391,,,,,,,,,,,,,,,,,,,,122.53504230000544,122.53921590000391,123.34725780005101,123.34350900002755,2,123.34538940002676,123.34725780005101,123.34725780005101,123.83531960006803,123.83531960006803,123.83074470004067,down,0.36496880010236055,None,123.83078070008196,123.83079650008585,None,,,,,,,,,,,sub-012,001,2026-01-28_17h21.22.316,NESC3137_EEG_experiment,,2025.2.4,236.98423342924994,2026-01-28 17h21.22.710117 -0400,
83,0,83,down,0.43264809995889664,None,None,,,83,0,83,0,123.83531960006803,,,,,,,,,,,,,,,,,,,,123.83090360008646,123.83531960006803,124.61076760001015,124.60599780001212,2,124.60947590006981,124.61076760001015,124.61076760001015,125.09727430006023,125.09727430006023,125.09339850000106,down,0.43264809995889664,None,125.09343510004692,125.09345140005462,None,,,,,,,,,,,sub-012,001,2026-01-28_17h21.22.316,NESC3137_EEG_experiment,,2025.2.4,236.98423342924994,2026-01-28 17h21.22.710117 -0400,
84,0,84,up,0.452993500046432,None,None,,,84,0,84,0,125.09727430006023,,,,,,,,,,,,,,,,,,,,125.09356850001495,125.09727430006023,125.62667390005663,125.6224707000656,1,125.62429180007894,125.62667390005663,125.62667390005663,126.11408950004261,126.11408950004261,126.1100213000318,up,0.452993500046432,None,126.11005610006396,126.11007250007242,None,,,,,,,,,,,sub-012,001,2026-01-28_17h21.22.316,NESC3137_EEG_experiment,,2025.2.4,236.98423342924994,2026-01-28 17h21.22.710117 -0400,
85,0,85,down,0.3414519999641925,None,None,,,85,0,85,0,126.11408950004261,,,,,,,,,,,,,,,,,,,,126.11019020003732,126.11408950004261,127.0027526000049,126.99791020003613,2,127.00130930007435,127.0027526000049,127.0027526000049,127.4936232001055,127.4936232001055,127.48962870007381,down,0.3414519999641925,None,127.4896727000596,127.48968960007187,None,,,,,,,,,,,sub-012,001,2026-01-28_17h21.22.316,NESC3137_EEG_experiment,,2025.2.4,236.98423342924994,2026-01-28 17h21.22.710117 -0400,
86,0,86,up,0.34429930010810494,None,None,,,86,0,86,0,127.4936232001055,,,,,,,,,,,,,,,,,,,,127.48989060008898,127.4936232001055,128.45148330007214,128.44373810000252,1,128.44611630006693,128.45148330007214,128.45148330007214,128.93887380009983,128.93887380009983,128.93507710006088,up,0.34429930010810494,None,128.93511469999794,128.93513100000564,None,,,,,,,,,,,sub-012,001,2026-01-28_17h21.22.316,NESC3137_EEG_experiment,,2025.2.4,236.98423342924994,2026-01-28 17h21.22.710117 -0400,
87,0,87,down,0.3436096999794245,None,None,,,87,0,87,0,128.93887380009983,,,,,,,,,,,,,,,,,,,,128.93524820008315,128.93887380009983,129.609760500025,129.60619390010834,2,129.60791470005643,129.609760500025,129.609760500025,130.0973036000505,130.0973036000505,130.09508620004635,down,0.3436096999794245,None,130.09512370009907,130.09513980010524,None,,,,,,,,,,,sub-012,001,2026-01-28_17h21.22.316,NESC3137_EEG_experiment,,2025.2.4,236.98423342924994,2026-01-28 17h21.22.710117 -0400,
88,0,88,up,0.34714680002070963,None,None,,,88,0,88,0,130.0973036000505,,,,,,,,,,,,,,,,,,,,130.095283200033,130.0973036000505,130.89079210010823,130.88099590002093,1,130.8844347000122,130.89079210010823,130.89079210010823,131.38061320001725,131.38061320001725,131.37683660001494,up,0.34714680002070963,None,131.3768776000943,131.37689509999473,None,,,,,,,,,,,sub-012,001,2026-01-28_17h21.22.316,NESC3137_EEG_experiment,,2025.2.4,236.98423342924994,2026-01-28 17h21.22.710117 -0400,
89,0,89,down,0.3018277999944985,None,None,,,89,0,89,0,131.38061320001725,,,,,,,,,,,,,,,,,,,,131.3770975000225,131.38061320001725,132.23076930001844,132.2268445000518,2,132.22942520002834,132.23076930001844,132.23076930001844,132.71834040002432,132.71834040002432,132.71463040006347,down,0.3018277999944985,None,132.71467000001576,132.71468610002194,None,,,,,,,,,,,sub-012,001,2026-01-28_17h21.22.316,NESC3137_EEG_experiment,,2025.2.4,236.98423342924994,2026-01-28 17h21.22.710117 -0400,
90,0,90,up,0.3538081001024693,None,None,,,90,0,90,0,132.71834040002432,,,,,,,,,,,,,,,,,,,,132.7148114000447,132.71834040002432,133.70561669999734,133.70196010009386,1,133.70437950000633,133.70561669999734,133.70561669999734,134.19319450005423,134.19319450005423,134.18960470007733,up,0.3538081001024693,None,134.18965529999696,134.18968000006862,None,,,,,,,,,,,sub-012,001,2026-01-28_17h21.22.316,NESC3137_EEG_experiment,,2025.2.4,236.98423342924994,2026-01-28 17h21.22.710117 -0400,
91,0,91,down,0.2898017999250442,None,None,,,91,0,91,0,134.19319450005423,,,,,,,,,,,,,,,,,,,,134.18983920000028,134.19319450005423,134.80568860005587,134.80183260003105,2,134.80374150001444,134.80568860005587,134.80568860005587,135.293103300035,135.293103300035,135.28904070006683,down,0.2898017999250442,None,135.28907660010736,135.2890924999956,None,,,,,,,,,,,sub-012,001,2026-01-28_17h21.22.316,NESC3137_EEG_experiment,,2025.2.4,236.98423342924994,2026-01-28 17h21.22.710117 -0400,
92,0,92,down,0.4120903000002727,None,None,,,92,0,92,0,135.293103300035,,,,,,,,,,,,,,,,,,,,135.28923230001237,135.293103300035,135.86406789999455,135.85981570009608,2,135.86166920000687,135.86406789999455,135.86406789999455,136.34854120004456,136.34854120004456,136.34766940004192,down,0.4120903000002727,None,136.34770680009387,136.3477220000932,None,,,,,,,,,,,sub-012,001,2026-01-28_17h21.22.316,NESC3137_EEG_experiment,,2025.2.4,236.98423342924994,2026-01-28 17h21.22.710117 -0400,
93,0,93,down,0.3471447000047192,None,None,,,93,0,93,0,136.34854120004456,,,,,,,,,,,,,,,,,,,,136.34784070006572,136.34854120004456,137.08062390005216,137.0767517000204,2,137.07857480004895,137.08062390005216,137.08062390005216,137.56827770010568,137.56827770010568,137.56430010008626,down,0.3471447000047192,None,137.56435700005386,137.5643864000449,None,,,,,,,,,,,sub-012,001,2026-01-28_17h21.22.316,NESC3137_EEG_experiment,,2025.2.4,236.98423342924994,2026-01-28 17h21.22.710117 -0400,
94,0,94,up,0.38538649992551655,None,None,,,94,0,94,0,137.56827770010568,,,,,,,,,,,,,,,,,,,,137.56456379999872,137.56827770010568,138.31809930002782,138.314126900048,1,138.31602080003358,138.31809930002782,138.31809930002782,138.80565860006027,138.80565860006027,138.80197260004934,up,0.38538649992551655,None,138.80201400001533,138.80203190003522,None,,,,,,,,,,,sub-012,001,2026-01-28_17h21.22.316,NESC3137_EEG_experiment,,2025.2.4,236.98423342924994,2026-01-28 17h21.22.710117 -0400,
95,0,95,up,0.35209299996495247,None,None,,,95,0,95,0,138.80565860006027,,,,,,,,,,,,,,,,,,,,138.80215110001154,138.80565860006027,139.74728680006228,139.74329050001688,1,139.74523000000045,139.74728680006228,139.74728680006228,140.23468630004209,140.23468630004209,140.23175460007042,up,0.35209299996495247,None,140.23179350001737,140.2318144000601,None,,,,,,,,,,,sub-012,001,2026-01-28_17h21.22.316,NESC3137_EEG_experiment,,2025.2.4,236.98423342924994,2026-01-28 17h21.22.710117 -0400,
96,0,96,None,,,None,,,96,0,96,0,140.23468630004209,,,,,,,,,,,,,,,,,,,,140.23193540005013,140.23468630004209,140.81994529999793,140.81543120008428,2,140.8186701000668,140.81994529999793,140.81994529999793,141.30991230008658,141.30991230008658,141.30570970010012,None,,,141.30574450001586,141.30576210003346,None,,,,,,,,,,,sub-012,001,2026-01-28_17h21.22.316,NESC3137_EEG_experiment,,2025.2.4,236.98423342924994,2026-01-28 17h21.22.710117 -0400,
97,0,97,up,0.27896530006546527,0.15986349992454052,None,,,97,0,97,0,141.30991230008658,,,,,,,,,,,,,,,,,,,,141.30590400006622,141.30991230008658,142.28057260008063,142.27700090000872,2,142.27888200001325,142.28057260008063,142.28057260008063,142.7680878000101,142.7680878000101,142.76422950008418,up,0.27896530006546527,0.15986349992454052,142.76426740002353,142.76428440003656,None,,,,,,,,,,,sub-012,001,2026-01-28_17h21.22.316,NESC3137_EEG_experiment,,2025.2.4,236.98423342924994,2026-01-28 17h21.22.710117 -0400,
98,0,98,up,0.45988219999708235,None,None,,,98,0,98,0,142.7680878000101,,,,,,,,,,,,,,,,,,,,142.76440189999994,142.7680878000101,143.35971560003236,143.3559038999956,1,143.35772250010632,143.35971560003236,143.35971560003236,143.84759840008337,143.84759840008337,143.84335990005638,up,0.45988219999708235,None,143.8434142000042,143.8434711000882,None,,,,,,,,,,,sub-012,001,2026-01-28_17h21.22.316,NESC3137_EEG_experiment,,2025.2.4,236.98423342924994,2026-01-28 17h21.22.710117 -0400,
99,0,99,down,0.3444736999226734,0.07144100009463727,None,,,99,0,99,0,143.84759840008337,,,,,,,,,,,,,,,,,,,,143.84365340007935,143.84759840008337,144.57163970009424,144.56644760002382,1,144.56839750008658,144.57163970009424,144.57163970009424,145.0598075001035,145.0598075001035,145.05590620008297,down,0.3444736999226734,0.07144100009463727,145.05594120000023,145.05595700000413,None,,,,,,,,,,,sub-012,001,2026-01-28_17h21.22.316,NESC3137_EEG_experiment,,2025.2.4,236.98423342924994,2026-01-28 17h21.22.710117 -0400,
100,0,100,up,0.41954350005835295,None,None,,,100,0,100,0,145.0598075001035,,,,,,,,,,,,,,,,,,,,145.05609580001328,145.0598075001035,145.86386430007406,145.86098720005248,1,145.86272790003568,145.86386430007406,145.86386430007406,146.35151150007732,146.35151150007732,146.3476198000135,up,0.41954350005835295,None,146.34765710006468,146.34767240006477,None,,,,,,,,,,,sub-012,001,2026-01-28_17h21.22.316,NESC3137_EEG_experiment,,2025.2.4,236.98423342924994,2026-01-28 17h21.22.710117 -0400,
101,0,101,down,0.34924280003178865,None,None,,,101,0,101,0,146.35151150007732,,,,,,,,,,,,,,,,,,,,146.34786880004685,146.35151150007732,146.92639010003768,146.9225327000022,2,146.92456420010421,146.92639010003768,146.92639010003768,147.41385020001326,147.41385020001326,147.4101358000189,down,0.34924280003178865,None,147.41017350007314,147.4101912000915,None,,,,,,,,,,,sub-012,001,2026-01-28_17h21.22.316,NESC3137_EEG_experiment,,2025.2.4,236.98423342924994,2026-01-28 17h21.22.710117 -0400,
102,0,102,down,0.449516799999401,None,None,,,102,0,102,0,147.41385020001326,,,,,,,,,,,,,,,,,,,,147.41031320008915,147.41385020001326,148.32227410003543,148.318390200031,2,148.32024410006125,148.32227410003543,148.32227410003543,148.8097870000638,148.8097870000638,148.80597430001944,down,0.449516799999401,None,148.80603930004872,148.80605640006252,None,,,,,,,,,,,sub-012,001,2026-01-28_17h21.22.316,NESC3137_EEG_experiment,,2025.2.4,236.98423342924994,2026-01-28 17h21.22.710117 -0400,
103,0,103,None,,,None,,,103,0,103,0,148.8097870000638,,,,,,,,,,,,,,,,,,,,148.80617980007082,148.8097870000638,149.34787450009026,149.34317920007743,2,149.34521410008892,149.34787450009026,149.34787450009026,149.8348910000641,149.8348910000641,149.83102840010542,None,,,149.83106280001812,149.8310794000281,None,,,,,,,,,,,sub-012,001,2026-01-28_17h21.22.316,NESC3137_EEG_experiment,,2025.2.4,236.98423342924994,2026-01-28 17h21.22.710117 -0400,
104,0,104,up,0.4181413999758661,None,None,,,104,0,104,0,149.8348910000641,,,,,,,,,,,,,,,,,,,,149.8311975999968,149.8348910000641,150.81459399999585,150.8099490000168,1,150.81339090003166,150.81459399999585,150.81459399999585,151.30158110009506,151.30158110009506,151.2976504000835,up,0.4181413999758661,None,151.2976892000297,151.2977053000359,None,,,,,,,,,,,sub-012,001,2026-01-28_17h21.22.316,NESC3137_EEG_experiment,,2025.2.4,236.98423342924994,2026-01-28 17h21.22.710117 -0400,
105,0,105,up,0.4732236999552697,None,None,,,105,0,105,0,151.30158110009506,,,,,,,,,,,,,,,,,,,,151.29783010005485,151.30158110009506,151.96901400003117,151.96422990004066,1,151.9678031000076,151.96901400003117,151.96901400003117,152.4555069000926,152.4555069000926,152.45306070009246,up,0.4732236999552697,None,152.45310060004704,152.45311770006083,None,,,,,,,,,,,sub-012,001,2026-01-28_17h21.22.316,NESC3137_EEG_experiment,,2025.2.4,236.98423342924994,2026-01-28 17h21.22.710117 -0400,
106,0,106,None,,,None,,,106,0,106,0,152.4555069000926,,,,,,,,,,,,,,,,,,,,152.45324080006685,152.4555069000926,153.00967090006452,153.00578960007988,1,153.00779679999687,153.00967090006452,153.00967090006452,153.49723340000492,153.49723340000492,153.49338560004253,None,,,153.49341630004346,153.49343290005345,None,,,,,,,,,,,sub-012,001,2026-01-28_17h21.22.316,NESC3137_EEG_experiment,,2025.2.4,236.98423342924994,2026-01-28 17h21.22.710117 -0400,
107,0,107,up,0.37634880002588034,None,None,,,107,0,107,0,153.49723340000492,,,,,,,,,,,,,,,,,,,,153.49365240009502,153.49723340000492,154.32713170000352,154.32250020001084,1,154.3258850000566,154.32713170000352,154.32713170000352,154.81393970001955,154.81393970001955,154.80984890006948,up,0.37634880002588034,None,154.80988650000654,154.80990180000663,None,,,,,,,,,,,sub-012,001,2026-01-28_17h21.22.316,NESC3137_EEG_experiment,,2025.2.4,236.98423342924994,2026-01-28 17h21.22.710117 -0400,
108,0,108,up,0.37217089999467134,None,None,,,108,0,108,0,154.81393970001955,,,,,,,,,,,,,,,,,,,,154.81001180002932,154.81393970001955,155.75982450006995,155.7557743000798,1,155.75775000010617,155.75982450006995,155.75982450006995,156.24725870008115,156.24725870008115,156.24344200000633,up,0.37217089999467134,None,156.2435197000159,156.24353750003502,None,,,,,,,,,,,sub-012,001,2026-01-28_17h21.22.316,NESC3137_EEG_experiment,,2025.2.4,236.98423342924994,2026-01-28 17h21.22.710117 -0400,
109,0,109,up,0.34717710001859814,None,None,,,109,0,109,0,156.24725870008115,,,,,,,,,,,,,,,,,,,,156.24365800002124,156.24725870008115,156.80550050002057,156.80165820010006,1,156.80341520009097,156.80550050002057,156.80550050002057,157.29312700009905,157.29312700009905,157.28913530008867,up,0.34717710001859814,None,157.28917720005848,157.28919300006237,None,,,,,,,,,,,sub-012,001,2026-01-28_17h21.22.316,NESC3137_EEG_experiment,,2025.2.4,236.98423342924994,2026-01-28 17h21.22.710117 -0400,
110,0,110,up,0.27654850005637854,None,None,,,110,0,110,0,157.29312700009905,,,,,,,,,,,,,,,,,,,,157.2893161000684,157.29312700009905,158.25548849999905,158.25182210002095,1,158.25392660009675,158.25548849999905,158.25548849999905,158.74312040000223,158.74312040000223,158.7391906999983,up,0.27654850005637854,None,158.73922680004034,158.73924300004728,None,,,,,,,,,,,sub-012,001,2026-01-28_17h21.22.316,NESC3137_EEG_experiment,,2025.2.4,236.98423342924994,2026-01-28 17h21.22.710117 -0400,
111,0,111,up,0.3220403000013903,None,None,,,111,0,111,0,158.74312040000223,,,,,,,,,,,,,,,,,,,,158.739380300045,158.74312040000223,159.31381399999373,159.31010180001613,1,159.3119497000007,159.31381399999373,159.31381399999373,159.8015166000696,159.8015166000696,159.7981120001059,up,0.3220403000013903,None,159.79814930004068,159.79816510004457,None,,,,,,,,,,,sub-012,001,2026-01-28_17h21.22.316,NESC3137_EEG_experiment,,2025.2.4,236.98423342924994,2026-01-28 17h21.22.710117 -0400,
112,0,112,down,0.36980029998812824,None,None,,,112,0,112,0,159.8015166000696,,,,,,,,,,,,,,,,,,,,159.79827930009924,159.8015166000696,160.64302509999834,160.63926680001896,2,160.64113100001123,160.64302509999834,160.64302509999834,161.13055220001843,161.13055220001843,161.1278649000451,down,0.36980029998812824,None,161.12790560000576,161.12792640004773,None,,,,,,,,,,,sub-012,001,2026-01-28_17h21.22.316,NESC3137_EEG_experiment,,2025.2.4,236.98423342924994,2026-01-28 17h21.22.710117 -0400,
113,0,113,down,0.44520199997350574,None,None,,,113,0,113,0,161.13055220001843,,,,,,,,,,,,,,,,,,,,161.12805010005832,161.13055220001843,161.62630000000354,161.62243000010494,2,161.62458360008895,161.62630000000354,161.62630000000354,162.11385910003446,162.11385910003446,162.10990770009812,down,0.44520199997350574,None,162.1099447000306,162.10996110003907,None,,,,,,,,,,,sub-012,001,2026-01-28_17h21.22.316,NESC3137_EEG_experiment,,2025.2.4,236.98423342924994,2026-01-28 17h21.22.710117 -0400,
114,0,114,up,0.40822000009939075,None,None,,,114,0,114,0,162.11385910003446,,,,,,,,,,,,,,,,,,,,162.11006740003359,162.11385910003446,162.95133120007813,162.94767710007727,1,162.94957030005753,162.95133120007813,162.95133120007813,163.4392255001003,163.4392255001003,163.43506480008364,up,0.40822000009939075,None,163.4351024000207,163.43511730001774,None,,,,,,,,,,,sub-012,001,2026-01-28_17h21.22.316,NESC3137_EEG_experiment,,2025.2.4,236.98423342924994,2026-01-28 17h21.22.710117 -0400,
115,0,115,down,0.3892996999202296,None,None,,,115,0,115,0,163.4392255001003,,,,,,,,,,,,,,,,,,,,163.43525290000252,163.4392255001003,164.0222013000166,164.01898450008593,2,164.02082950004842,164.0222013000166,164.0222013000166,164.5096730000805,164.5096730000805,164.5056558001088,down,0.3892996999202296,None,164.5056915000314,164.5057083000429,None,,,,,,,,,,,sub-012,001,2026-01-28_17h21.22.316,NESC3137_EEG_experiment,,2025.2.4,236.98423342924994,2026-01-28 17h21.22.710117 -0400,
116,0,116,down,0.4518321000505239,None,None,,,116,0,116,0,164.5096730000805,,,,,,,,,,,,,,,,,,,,164.50582489999942,164.5096730000805,165.06838030007202,165.064008400077,2,165.06588350003585,165.06838030007202,165.06838030007202,165.55567370005883,165.55567370005883,165.5516829000553,down,0.4518321000505239,None,165.55172280000988,165.5517396000214,None,,,,,,,,,,,sub-012,001,2026-01-28_17h21.22.316,NESC3137_EEG_experiment,,2025.2.4,236.98423342924994,2026-01-28 17h21.22.710117 -0400,
117,0,117,down,0.32464200002141297,None,None,,,117,0,117,0,165.55567370005883,,,,,,,,,,,,,,,,,,,,165.5518581001088,165.55567370005883,166.2388582000276,166.2352731000865,1,166.23752830002923,166.2388582000276,166.2388582000276,166.72634890000336,166.72634890000336,166.72277069999836,down,0.32464200002141297,None,166.72281130007468,166.72282800008543,None,,,,,,,,,,,sub-012,001,2026-01-28_17h21.22.316,NESC3137_EEG_experiment,,2025.2.4,236.98423342924994,2026-01-28 17h21.22.710117 -0400,
118,0,118,up,0.4209641000488773,None,None,,,118,0,118,0,166.72634890000336,,,,,,,,,,,,,,,,,,,,166.72295300010592,166.72634890000336,167.51888560003135,167.51438730000518,1,167.51683440001216,167.51888560003135,167.51888560003135,168.00552050000988,168.00552050000988,168.00168490002397,up,0.4209641000488773,None,168.00172060006298,168.0017363000661,None,,,,,,,,,,,sub-012,001,2026-01-28_17h21.22.316,NESC3137_EEG_experiment,,2025.2.4,236.98423342924994,2026-01-28 17h21.22.710117 -0400,
119,0,119,up,0.3927511000074446,None,None,,,119,0,119,0,168.00552050000988,,,,,,,,,,,,,,,,,,,,168.00185710005462,168.00552050000988,168.66415520000737,168.6559662000509,1,168.65818340005353,168.66415520000737,168.66415520000737,169.15138330007903,169.15138330007903,169.1476357000647,up,0.3927511000074446,None,169.14767750003375,169.14769360003993,None,,,,,,,,,,,sub-012,001,2026-01-28_17h21.22.316,NESC3137_EEG_experiment,,2025.2.4,236.98423342924994,2026-01-28 17h21.22.710117 -0400,
120,0,120,down,0.3431904000462964,None,None,,,120,0,120,0,169.15138330007903,,,,,,,,,,,,,,,,,,,,169.14781510003377,169.15138330007903,170.07221160002518,170.06918560003396,2,170.07098140008748,170.07221160002518,170.07221160002518,170.55988090008032,170.55988090008032,170.55577920004725,down,0.3431904000462964,None,170.55581630009692,170.5558319000993,None,,,,,,,,,,,sub-012,001,2026-01-28_17h21.22.316,NESC3137_EEG_experiment,,2025.2.4,236.98423342924994,2026-01-28 17h21.22.710117 -0400,
121,0,121,down,0.38710559997707605,None,None,,,121,0,121,0,170.55988090008032,,,,,,,,,,,,,,,,,,,,170.55594680004288,170.55988090008032,171.080528600025,171.0771917999955,2,171.07917070004623,171.080528600025,171.080528600025,171.56800810003188,171.56800810003188,171.56455360003747,down,0.38710559997707605,None,171.56458990008105,171.56460690009408,None,,,,,,,,,,,sub-012,001,2026-01-28_17h21.22.316,NESC3137_EEG_experiment,,2025.2.4,236.98423342924994,2026-01-28 17h21.22.710117 -0400,
122,0,122,down,0.4236510000191629,None,None,,,122,0,122,0,171.56800810003188,,,,,,,,,,,,,,,,,,,,171.56472110003233,171.56800810003188,172.08888990001287,172.08499930007383,2,172.08699560002424,172.08888990001287,172.08888990001287,172.5764989000745,172.5764989000745,172.57257780001964,down,0.4236510000191629,None,172.57261630007997,172.57263450010214,None,,,,,,,,,,,sub-012,001,2026-01-28_17h21.22.316,NESC3137_EEG_experiment,,2025.2.4,236.98423342924994,2026-01-28 17h21.22.710117 -0400,
123,0,123,up,0.4203875999664888,None,None,,,123,0,123,0,172.5764989000745,,,,,,,,,,,,,,,,,,,,172.57275450008456,172.5764989000745,173.243028900004,173.2394603000721,1,173.24121010000817,173.243028900004,173.243028900004,173.7306240000762,173.7306240000762,173.72647190000862,up,0.4203875999664888,None,173.72654200007673,173.72656930005178,None,,,,,,,,,,,sub-012,001,2026-01-28_17h21.22.316,NESC3137_EEG_experiment,,2025.2.4,236.98423342924994,2026-01-28 17h21.22.710117 -0400,
124,0,124,up,0.3194297000300139,None,None,,,124,0,124,0,173.7306240000762,,,,,,,,,,,,,,,,,,,,173.7266924000578,173.7306240000762,174.58043720002752,174.5765755000757,1,174.57840430003125,174.58043720002752,174.58043720002752,175.06819370004814,175.06819370004814,175.06484240002465,up,0.3194297000300139,None,175.06488130008802,175.06492210004944,None,,,,,,,,,,,sub-012,001,2026-01-28_17h21.22.316,NESC3137_EEG_experiment,,2025.2.4,236.98423342924994,2026-01-28 17h21.22.710117 -0400,
125,0,125,down,0.3724479000084102,None,None,,,125,0,125,0,175.06819370004814,,,,,,,,,,,,,,,,,,,,175.06504740007222,175.06819370004814,175.95550110004842,175.95173650002107,2,175.95356390008237,175.95550110004842,175.95550110004842,176.4431157000363,176.4431157000363,176.4391830000095,down,0.3724479000084102,None,176.4392237000866,176.4392405000981,None,,,,,,,,,,,sub-012,001,2026-01-28_17h21.22.316,NESC3137_EEG_experiment,,2025.2.4,236.98423342924994,2026-01-28 17h21.22.710117 -0400,
126,0,126,up,0.45824150007683784,None,None,,,126,0,126,0,176.4431157000363,,,,,,,,,,,,,,,,,,,,176.43939740001224,176.4431157000363,177.02642460004427,177.02248250006232,1,177.02436160005163,177.02642460004427,177.02642460004427,177.5139187000459,177.5139187000459,177.50990360009018,up,0.45824150007683784,None,177.5099418000318,177.50995770003647,None,,,,,,,,,,,sub-012,001,2026-01-28_17h21.22.316,NESC3137_EEG_experiment,,2025.2.4,236.98423342924994,2026-01-28 17h21.22.710117 -0400,
127,0,127,None,,,None,,,127,0,127,0,177.5139187000459,,,,,,,,,,,,,,,,,,,,177.510072800098,177.5139187000459,178.29724030010402,178.2937566000037,2,178.29594790004194,178.29724030010402,178.29724030010402,178.7846600000048,178.7846600000048,178.7808115000371,None,,,178.78084340004716,178.780925600091,None,,,,,,,,,,,sub-012,001,2026-01-28_17h21.22.316,NESC3137_EEG_experiment,,2025.2.4,236.98423342924994,2026-01-28 17h21.22.710117 -0400,
128,0,128,down,0.38979670009575784,None,None,,,128,0,128,0,178.7846600000048,,,,,,,,,,,,,,,,,,,,178.78113560006022,178.7846600000048,179.61966080009006,179.61421900009736,2,179.61841019999702,179.61966080009006,179.61966080009006,180.1099013000494,180.1099013000494,180.10579080006573,down,0.38979670009575784,None,180.10582650010474,180.10584279999603,None,,,,,,,,,,,sub-012,001,2026-01-28_17h21.22.316,NESC3137_EEG_experiment,,2025.2.4,236.98423342924994,2026-01-28 17h21.22.710117 -0400,
129,0,129,up,0.3260544999502599,0.09674020006787032,None,,,129,0,129,0,180.1099013000494,,,,,,,,,,,,,,,,,,,,180.10595160000958,180.1099013000494,180.993317100103,180.98929230007343,2,180.9915632000193,180.993317100103,180.993317100103,181.48064720002003,181.48064720002003,181.47690730006434,up,0.3260544999502599,0.09674020006787032,181.4769440999953,181.47696010000072,None,,,,,,,,,,,sub-012,001,2026-01-28_17h21.22.316,NESC3137_EEG_experiment,,2025.2.4,236.98423342924994,2026-01-28 17h21.22.710117 -0400,
130,0,130,down,0.28905429993756115,None,None,,,130,0,130,0,181.48064720002003,,,,,,,,,,,,,,,,,,,,181.47710420005023,181.48064720002003,182.44308740005363,182.43921240000054,2,182.44111680006608,182.44308740005363,182.44308740005363,182.93070090003312,182.93070090003312,182.92656490008812,down,0.28905429993756115,None,182.92660540004726,182.92662270006258,None,,,,,,,,,,,sub-012,001,2026-01-28_17h21.22.316,NESC3137_EEG_experiment,,2025.2.4,236.98423342924994,2026-01-28 17h21.22.710117 -0400,
131,0,131,down,0.3096470000455156,None,None,,,131,0,131,0,182.93070090003312,,,,,,,,,,,,,,,,,,,,182.92674070002977,182.93070090003312,183.8359326000791,183.83084880001843,2,183.83464090002235,183.8359326000791,183.8359326000791,184.32633549999446,184.32633549999446,184.3230307000922,down,0.3096470000455156,None,184.32306860003155,184.3230853000423,None,,,,,,,,,,,sub-012,001,2026-01-28_17h21.22.316,NESC3137_EEG_experiment,,2025.2.4,236.98423342924994,2026-01-28 17h21.22.710117 -0400,
132,0,132,down,0.3042542999610305,None,None,,,132,0,132,0,184.32633549999446,,,,,,,,,,,,,,,,,,,,184.32321280008182,184.32633549999446,185.1435059000505,185.13950350007508,2,185.14160600001924,185.1435059000505,185.1435059000505,185.6305277000647,185.6305277000647,185.62670570006594,down,0.3042542999610305,None,185.62675640010275,185.6267746000085,None,,,,,,,,,,,sub-012,001,2026-01-28_17h21.22.316,NESC3137_EEG_experiment,,2025.2.4,236.98423342924994,2026-01-28 17h21.22.710117 -0400,
133,0,133,up,0.3974140000063926,None,None,,,133,0,133,0,185.6305277000647,,,,,,,,,,,,,,,,,,,,185.62689740001224,185.6305277000647,186.53047160001006,186.52668860007543,1,186.52896200004034,186.53047160001006,186.53047160001006,187.01796820003074,187.01796820003074,187.0152261001058,up,0.3974140000063926,None,187.01526760007255,187.01528440008406,None,,,,,,,,,,,sub-012,001,2026-01-28_17h21.22.316,NESC3137_EEG_experiment,,2025.2.4,236.98423342924994,2026-01-28 17h21.22.710117 -0400,
134,0,134,down,0.3659382000332698,None,None,,,134,0,134,0,187.01796820003074,,,,,,,,,,,,,,,,,,,,187.0154033000581,187.01796820003074,187.9097485000966,187.9057504000375,2,187.90747540001757,187.9097485000966,187.9097485000966,188.3975361000048,188.3975361000048,188.39318000001367,down,0.3659382000332698,None,188.39321580005344,188.39323110005353,None,,,,,,,,,,,sub-012,001,2026-01-28_17h21.22.316,NESC3137_EEG_experiment,,2025.2.4,236.98423342924994,2026-01-28 17h21.22.710117 -0400,
135,0,135,up,0.37792520003858954,None,None,,,135,0,135,0,188.3975361000048,,,,,,,,,,,,,,,,,,,,188.393343700096,188.3975361000048,189.37418330006767,189.36426140007097,1,189.37138410005718,189.37418330006767,189.37418330006767,189.86381150002126,189.86381150002126,189.86002610006835,up,0.37792520003858954,None,189.86006430000998,189.8600891000824,None,,,,,,,,,,,sub-012,001,2026-01-28_17h21.22.316,NESC3137_EEG_experiment,,2025.2.4,236.98423342924994,2026-01-28 17h21.22.710117 -0400,
136,0,136,up,0.43450769991613925,None,None,,,136,0,136,0,189.86381150002126,,,,,,,,,,,,,,,,,,,,189.86020930006634,189.86381150002126,190.45741070003714,190.4515797001077,1,190.4556502000196,190.45741070003714,190.45741070003714,190.94712990010157,190.94712990010157,190.94326349999756,up,0.43450769991613925,None,190.94330030004494,190.9433167000534,None,,,,,,,,,,,sub-012,001,2026-01-28_17h21.22.316,NESC3137_EEG_experiment,,2025.2.4,236.98423342924994,2026-01-28 17h21.22.710117 -0400,
137,0,137,None,,,None,,,137,0,137,0,190.94712990010157,,,,,,,,,,,,,,,,,,,,190.94342660007533,190.94712990010157,191.76373850007076,191.75996120006312,2,191.76213080005255,191.76373850007076,191.76373850007076,192.25124570005573,192.25124570005573,192.2475525001064,None,,,192.24758500000462,192.24760100001004,None,,,,,,,,,,,sub-012,001,2026-01-28_17h21.22.316,NESC3137_EEG_experiment,,2025.2.4,236.98423342924994,2026-01-28 17h21.22.710117 -0400,
138,0,138,up,0.4261418000096455,None,None,,,138,0,138,0,192.25124570005573,,,,,,,,,,,,,,,,,,,,192.2477085000137,192.25124570005573,192.79036360001191,192.78528440010268,1,192.78880179999396,192.79036360001191,192.79036360001191,193.27631620003376,193.27631620003376,193.2733035000274,up,0.4261418000096455,None,193.27333930006716,193.27335510007106,None,,,,,,,,,,,sub-012,001,2026-01-28_17h21.22.316,NESC3137_EEG_experiment,,2025.2.4,236.98423342924994,2026-01-28 17h21.22.710117 -0400,
139,0,139,down,0.4022904000012204,None,None,,,139,0,139,0,193.27631620003376,,,,,,,,,,,,,,,,,,,,193.273473200039,193.27631620003376,193.99320370005444,193.98581420001574,2,193.9877581000328,193.99320370005444,193.99320370005444,194.48064360010903,194.48064360010903,194.47656570002437,down,0.4022904000012204,None,194.47660700010601,194.4766227999935,None,,,,,,,,,,,sub-012,001,2026-01-28_17h21.22.316,NESC3137_EEG_experiment,,2025.2.4,236.98423342924994,2026-01-28 17h21.22.710117 -0400,
140,0,140,down,0.3702278999844566,None,None,,,140,0,140,0,194.48064360010903,,,,,,,,,,,,,,,,,,,,194.4767395000672,194.48064360010903,195.2971397000365,195.29332650010474,2,195.2950774000492,195.2971397000365,195.2971397000365,195.78482840000652,195.78482840000652,195.78089210006874,down,0.3702278999844566,None,195.78093140001874,195.7809486000333,None,,,,,,,,,,,sub-012,001,2026-01-28_17h21.22.316,NESC3137_EEG_experiment,,2025.2.4,236.98423342924994,2026-01-28 17h21.22.710117 -0400,
141,0,141,up,0.4603713999968022,None,None,,,141,0,141,0,195.78482840000652,,,,,,,,,,,,,,,,,,,,195.781131500029,195.78482840000652,196.4682912999997,196.46401150000747,1,196.46587750001345,196.4682912999997,196.4682912999997,196.95551580004394,196.95551580004394,196.95324950001668,up,0.4603713999968022,None,196.9532865000656,196.9533028000733,None,,,,,,,,,,,sub-012,001,2026-01-28_17h21.22.316,NESC3137_EEG_experiment,,2025.2.4,236.98423342924994,2026-01-28 17h21.22.710117 -0400,
142,0,142,up,0.38038450002204627,None,None,,,142,0,142,0,196.95551580004394,,,,,,,,,,,,,,,,,,,,196.95341800001916,196.95551580004394,197.89518460002728,197.88910260004923,1,197.89258880005218,197.89518460002728,197.89518460002728,198.38487060007174,198.38487060007174,198.38101990008727,up,0.38038450002204627,None,198.38106150005478,198.3810788000701,None,,,,,,,,,,,sub-012,001,2026-01-28_17h21.22.316,NESC3137_EEG_experiment,,2025.2.4,236.98423342924994,2026-01-28 17h21.22.710117 -0400,
143,0,143,up,0.4310926999896765,None,None,,,143,0,143,0,198.38487060007174,,,,,,,,,,,,,,,,,,,,198.3811999000609,198.38487060007174,199.0685268000234,199.06410630000755,1,199.06655910005793,199.0685268000234,199.0685268000234,199.5554986000061,199.5554986000061,199.55164860002697,up,0.4310926999896765,None,199.55169059999753,199.55170780001208,None,,,,,,,,,,,sub-012,001,2026-01-28_17h21.22.316,NESC3137_EEG_experiment,,2025.2.4,236.98423342924994,2026-01-28 17h21.22.710117 -0400,
144,0,144,down,0.3678580999840051,None,None,,,144,0,144,0,199.5554986000061,,,,,,,,,,,,,,,,,,,,199.55182940000668,199.5554986000061,200.29291410010774,200.2891082999995,2,200.29118140006904,200.29291410010774,200.29291410010774,200.78173080005217,200.78173080005217,200.77647640008945,down,0.3678580999840051,None,200.77651370002422,200.77652940002736,None,,,,,,,,,,,sub-012,001,2026-01-28_17h21.22.316,NESC3137_EEG_experiment,,2025.2.4,236.98423342924994,2026-01-28 17h21.22.710117 -0400,
145,0,145,up,0.41689770005177706,None,None,,,145,0,145,0,200.78173080005217,,,,,,,,,,,,,,,,,,,,200.77664060005918,200.78173080005217,201.5388048000168,201.53481380001176,1,201.5369381000055,201.5388048000168,201.5388048000168,202.02641580009367,202.02641580009367,202.0223573000403,up,0.41689770005177706,None,202.02243510005064,202.02246460004244,None,,,,,,,,,,,sub-012,001,2026-01-28_17h21.22.316,NESC3137_EEG_experiment,,2025.2.4,236.98423342924994,2026-01-28 17h21.22.710117 -0400,
146,0,146,None,,,None,,,146,0,146,0,202.02641580009367,,,,,,,,,,,,,,,,,,,,202.0226101001026,202.02641580009367,202.726279500057,202.7227197000757,1,202.7248531000223,202.726279500057,202.726279500057,203.2137861000374,203.2137861000374,203.21013370004948,None,,,203.2101673000725,203.21023760002572,None,,,,,,,,,,,sub-012,001,2026-01-28_17h21.22.316,NESC3137_EEG_experiment,,2025.2.4,236.98423342924994,2026-01-28 17h21.22.710117 -0400,
147,0,147,up,0.46837220003362745,None,None,,,147,0,147,0,203.2137861000374,,,,,,,,,,,,,,,,,,,,203.21043310000096,203.2137861000374,203.81900400004815,203.81407580000814,1,203.8176971001085,203.81900400004815,203.81900400004815,204.30547540006228,204.30547540006228,204.30262140010018,up,0.46837220003362745,None,204.3026583000319,204.3026728000259,None,,,,,,,,,,,sub-012,001,2026-01-28_17h21.22.316,NESC3137_EEG_experiment,,2025.2.4,236.98423342924994,2026-01-28 17h21.22.710117 -0400,
148,0,148,None,,,None,,,148,0,148,0,204.30547540006228,,,,,,,,,,,,,,,,,,,,204.30278570007067,204.30547540006228,204.98874790000264,204.9846767000854,1,204.98707910010125,204.98874790000264,204.98874790000264,205.4764976000879,205.4764976000879,205.47284040006343,None,,,205.47289930004627,205.47293460008223,None,,,,,,,,,,,sub-012,001,2026-01-28_17h21.22.316,NESC3137_EEG_experiment,,2025.2.4,236.98423342924994,2026-01-28 17h21.22.710117 -0400,
149,0,149,up,0.43102510005701333,None,None,,,149,0,149,0,205.4764976000879,,,,,,,,,,,,,,,,,,,,205.47312540002167,205.4764976000879,206.07647730002645,206.07223600009456,1,206.07422970002517,206.07647730002645,206.07647730002645,206.5640211000573,206.5640211000573,206.5599994000513,up,0.43102510005701333,None,206.56003740010783,206.56005339999683,None,,,,,,,,,,,sub-012,001,2026-01-28_17h21.22.316,NESC3137_EEG_experiment,,2025.2.4,236.98423342924994,2026-01-28 17h21.22.710117 -0400,
150,0,150,up,0.3974469000240788,None,None,,,150,0,150,0,206.5640211000573,,,,,,,,,,,,,,,,,,,,206.56017960002646,206.5640211000573,207.16825089999475,207.16019930003677,1,207.16226600005757,207.16825089999475,207.16825089999475,207.65565810003318,207.65565810003318,207.65164530009497,up,0.3974469000240788,None,207.65168380003888,207.6517003000481,None,,,,,,,,,,,sub-012,001,2026-01-28_17h21.22.316,NESC3137_EEG_experiment,,2025.2.4,236.98423342924994,2026-01-28 17h21.22.710117 -0400,
151,0,151,down,0.43179459997918457,None,None,,,151,0,151,0,207.65565810003318,,,,,,,,,,,,,,,,,,,,207.65181860001758,207.65565810003318,208.1595928000752,208.1557577000931,2,208.15781360003166,208.1595928000752,208.1595928000752,208.64791709999554,208.64791709999554,208.6434242000105,down,0.43179459997918457,None,208.64348610001616,208.64350470004138,None,,,,,,,,,,,sub-012,001,2026-01-28_17h21.22.316,NESC3137_EEG_experiment,,2025.2.4,236.98423342924994,2026-01-28 17h21.22.710117 -0400,
152,0,152,up,0.3845365000888705,None,None,,,152,0,152,0,208.64791709999554,,,,,,,,,,,,,,,,,,,,208.64362430002075,208.64791709999554,209.34333430009428,209.33516010001767,1,209.33759920008015,209.34333430009428,209.34333430009428,209.8306217000354,209.8306217000354,209.82643120002467,up,0.3845365000888705,None,209.82646830007434,209.82648460008204,None,,,,,,,,,,,sub-012,001,2026-01-28_17h21.22.316,NESC3137_EEG_experiment,,2025.2.4,236.98423342924994,2026-01-28 17h21.22.710117 -0400,
153,0,153,up,0.25507610000204295,0.17241559992544353,None,,,153,0,153,0,209.8306217000354,,,,,,,,,,,,,,,,,,,,209.82664350001141,209.8306217000354,210.7928772000596,210.7890938000055,1,210.79101960000116,210.7928772000596,210.7928772000596,211.28045270009898,211.28045270009898,211.2766038000118,up,0.25507610000204295,0.17241559992544353,211.2766421000706,211.27665880008135,None,,,,,,,,,,,sub-012,001,2026-01-28_17h21.22.316,NESC3137_EEG_experiment,,2025.2.4,236.98423342924994,2026-01-28 17h21.22.710117 -0400,
154,0,154,down,0.39091069996356964,None,None,,,154,0,154,0,211.28045270009898,,,,,,,,,,,,,,,,,,,,211.27677930006757,211.28045270009898,211.87330289999954,211.86817450006492,2,211.87189000006765,211.87330289999954,211.87330289999954,212.36396099999547,212.36396099999547,212.35974640003406,down,0.39091069996356964,None,212.35978310008068,212.35979930008762,None,,,,,,,,,,,sub-012,001,2026-01-28_17h21.22.316,NESC3137_EEG_experiment,,2025.2.4,236.98423342924994,2026-01-28 17h21.22.710117 -0400,
155,0,155,None,,,None,,,155,0,155,0,212.36396099999547,,,,,,,,,,,,,,,,,,,,212.359918900067,212.36396099999547,212.91549730009865,212.91083010006696,1,212.91431250004098,212.91549730009865,212.91549730009865,213.40638890000992,213.40638890000992,213.40152860002127,None,,,213.4015611000359,213.4015777000459,None,,,,,,,,,,,sub-012,001,2026-01-28_17h21.22.316,NESC3137_EEG_experiment,,2025.2.4,236.98423342924994,2026-01-28 17h21.22.710117 -0400,
156,0,156,down,0.37449940002989024,None,None,,,156,0,156,0,213.40638890000992,,,,,,,,,,,,,,,,,,,,213.40169319999404,213.40638890000992,213.99290090007707,213.98905840003863,2,213.99108090007212,213.99290090007707,213.99290090007707,214.48055480001494,214.48055480001494,214.47675280005205,down,0.37449940002989024,None,214.4767920000013,214.47681000002194,None,,,,,,,,,,,sub-012,001,2026-01-28_17h21.22.316,NESC3137_EEG_experiment,,2025.2.4,236.98423342924994,2026-01-28 17h21.22.710117 -0400,
157,0,157,up,0.33076420007273555,None,None,,,157,0,157,0,214.48055480001494,,,,,,,,,,,,,,,,,,,,214.47693180001806,214.48055480001494,215.17271750001237,215.1683312000241,1,215.17023580009118,215.17271750001237,215.17271750001237,215.65996570000425,215.65996570000425,215.6558141000569,up,0.33076420007273555,None,215.65585150010884,215.6558675999986,None,,,,,,,,,,,sub-012,001,2026-01-28_17h21.22.316,NESC3137_EEG_experiment,,2025.2.4,236.98423342924994,2026-01-28 17h21.22.710117 -0400,
158,0,158,up,0.3852680999552831,0.06419699999969453,None,,,158,0,158,0,215.65996570000425,,,,,,,,,,,,,,,,,,,,215.65597830002662,215.65996570000425,216.5262042999966,216.5225824000081,2,216.52464870002586,216.5262042999966,216.5262042999966,217.0139119999949,217.0139119999949,217.00975349999499,up,0.3852680999552831,0.06419699999969453,217.0097905000439,217.00980630004779,None,,,,,,,,,,,sub-012,001,2026-01-28_17h21.22.316,NESC3137_EEG_experiment,,2025.2.4,236.98423342924994,2026-01-28 17h21.22.710117 -0400,
159,0,159,up,0.3939796999329701,None,None,,,159,0,159,0,217.0139119999949,,,,,,,,,,,,,,,,,,,,217.00991560006514,217.0139119999949,217.64284250000492,217.63917490001768,1,217.64110240002628,217.64284250000492,217.64284250000492,218.13068180007394,218.13068180007394,218.1266353999963,up,0.3939796999329701,None,218.12668060010765,218.1266996000195,None,,,,,,,,,,,sub-012,001,2026-01-28_17h21.22.316,NESC3137_EEG_experiment,,2025.2.4,236.98423342924994,2026-01-28 17h21.22.710117 -0400,
160,0,160,up,0.38924199994653463,None,None,,,160,0,160,0,218.13068180007394,,,,,,,,,,,,,,,,,,,,218.1268427000614,218.13068180007394,218.94287500006612,218.9389116000384,1,218.94080770004075,218.94287500006612,218.94287500006612,219.43312200007495,219.43312200007495,219.42672960006166,up,0.38924199994653463,None,219.4267688000109,219.42678600002546,None,,,,,,,,,,,sub-012,001,2026-01-28_17h21.22.316,NESC3137_EEG_experiment,,2025.2.4,236.98423342924994,2026-01-28 17h21.22.710117 -0400,
161,0,161,up,0.3131059999577701,None,None,,,161,0,161,0,219.43312200007495,,,,,,,,,,,,,,,,,,,,219.426976100076,219.43312200007495,220.29031430010218,220.28511560009792,1,220.2874186000554,220.29031430010218,220.29031430010218,220.7804772000527,220.7804772000527,220.77633430005517,up,0.3131059999577701,None,220.77637030009646,220.77638620010111,None,,,,,,,,,,,sub-012,001,2026-01-28_17h21.22.316,NESC3137_EEG_experiment,,2025.2.4,236.98423342924994,2026-01-28 17h21.22.710117 -0400,
162,0,162,down,0.3644081000238657,None,None,,,162,0,162,0,220.7804772000527,,,,,,,,,,,,,,,,,,,,220.77649570000358,220.7804772000527,221.3762499000877,221.37220410001464,2,221.37410860008094,221.3762499000877,221.3762499000877,221.86382359999698,221.86382359999698,221.85970630007796,down,0.3644081000238657,None,221.85974300000817,221.85975990002044,None,,,,,,,,,,,sub-012,001,2026-01-28_17h21.22.316,NESC3137_EEG_experiment,,2025.2.4,236.98423342924994,2026-01-28 17h21.22.710117 -0400,
163,0,163,down,0.3621188000543043,None,None,,,163,0,163,0,221.86382359999698,,,,,,,,,,,,,,,,,,,,221.85987090005074,221.86382359999698,222.4053952000104,222.4015834000893,2,222.40373430005275,222.4053952000104,222.4053952000104,222.89406180009246,222.89406180009246,222.88893130002543,down,0.3621188000543043,None,222.88897470000666,222.8889909000136,None,,,,,,,,,,,sub-012,001,2026-01-28_17h21.22.316,NESC3137_EEG_experiment,,2025.2.4,236.98423342924994,2026-01-28 17h21.22.710117 -0400,
164,0,164,down,0.33677510009147227,None,None,,,164,0,164,0,222.89406180009246,,,,,,,,,,,,,,,,,,,,222.88910080003552,222.89406180009246,223.88037390005775,223.87699900008738,2,223.87908980005886,223.88037390005775,223.88037390005775,224.36793050006963,224.36793050006963,224.36418780009262,down,0.33677510009147227,None,224.36422530002892,224.36424230004195,None,,,,,,,,,,,sub-012,001,2026-01-28_17h21.22.316,NESC3137_EEG_experiment,,2025.2.4,236.98423342924994,2026-01-28 17h21.22.710117 -0400,
165,0,165,down,0.3244186999509111,None,None,,,165,0,165,0,224.36793050006963,,,,,,,,,,,,,,,,,,,,224.36436110001523,224.36793050006963,225.0512964000227,225.04738920007367,2,225.05006050004158,225.0512964000227,225.0512964000227,225.5389518000884,225.5389518000884,225.53499060007744,down,0.3244186999509111,None,225.53505629999563,225.53508860000875,None,,,,,,,,,,,sub-012,001,2026-01-28_17h21.22.316,NESC3137_EEG_experiment,,2025.2.4,236.98423342924994,2026-01-28 17h21.22.710117 -0400,
166,0,166,up,0.3912933999672532,None,None,,,166,0,166,0,225.5389518000884,,,,,,,,,,,,,,,,,,,,225.5353358000284,225.5389518000884,226.3762071999954,226.3722526000347,1,226.3742060000077,226.3762071999954,226.3762071999954,226.8638313000556,226.8638313000556,226.8598891000729,up,0.3912933999672532,None,226.8599266000092,226.8599419000093,None,,,,,,,,,,,sub-012,001,2026-01-28_17h21.22.316,NESC3137_EEG_experiment,,2025.2.4,236.98423342924994,2026-01-28 17h21.22.710117 -0400,
167,0,167,down,0.3312822999432683,None,None,,,167,0,167,0,226.8638313000556,,,,,,,,,,,,,,,,,,,,226.86006560001988,226.8638313000556,227.80994980002288,227.80662320007104,2,227.80866450001486,227.80994980002288,227.80994980002288,228.29708839999512,228.29708839999512,228.29321600007825,down,0.3312822999432683,None,228.29325350001454,228.2932694000192,None,,,,,,,,,,,sub-012,001,2026-01-28_17h21.22.316,NESC3137_EEG_experiment,,2025.2.4,236.98423342924994,2026-01-28 17h21.22.710117 -0400,
168,0,168,down,0.47015800001099706,None,None,,,168,0,168,0,228.29708839999512,,,,,,,,,,,,,,,,,,,,228.29338050005026,228.29708839999512,228.9814478000626,228.97658260003664,2,228.9801469000522,228.9814478000626,228.9814478000626,229.46802370005753,229.46802370005753,229.46459960006177,down,0.47015800001099706,None,229.46464210003614,229.4646598000545,None,,,,,,,,,,,sub-012,001,2026-01-28_17h21.22.316,NESC3137_EEG_experiment,,2025.2.4,236.98423342924994,2026-01-28 17h21.22.710117 -0400,
169,0,169,up,0.3491882999660447,None,None,,,169,0,169,0,229.46802370005753,,,,,,,,,,,,,,,,,,,,229.4647840000689,229.46802370005753,230.1143651000457,230.1097551001003,1,230.11240400001407,230.1143651000457,230.1143651000457,230.60127640003338,230.60127640003338,230.5972783000907,up,0.3491882999660447,None,230.5973168000346,230.59733280004002,None,,,,,,,,,,,sub-012,001,2026-01-28_17h21.22.316,NESC3137_EEG_experiment,,2025.2.4,236.98423342924994,2026-01-28 17h21.22.710117 -0400,
170,0,170,up,0.3656619000248611,None,None,,,170,0,170,0,230.60127640003338,,,,,,,,,,,,,,,,,,,,230.59745960007422,230.60127640003338,231.31370590010192,231.30987360002473,1,231.31187470001169,231.31370590010192,231.31370590010192,231.80137360002846,231.80137360002846,231.7971652999986,up,0.3656619000248611,None,231.79720210004598,231.7972189000575,None,,,,,,,,,,,sub-012,001,2026-01-28_17h21.22.316,NESC3137_EEG_experiment,,2025.2.4,236.98423342924994,2026-01-28 17h21.22.710117 -0400,
171,0,171,up,0.3946967999218032,None,None,,,171,0,171,0,231.80137360002846,,,,,,,,,,,,,,,,,,,,231.79733299999498,231.80137360002846,232.56392760004383,232.56009170005564,1,232.56196750001982,232.56392760004383,232.56392760004383,233.05139270005748,233.05139270005748,233.04745539999567,up,0.3946967999218032,None,233.04749330005143,233.04751030006446,None,,,,,,,,,,,sub-012,001,2026-01-28_17h21.22.316,NESC3137_EEG_experiment,,2025.2.4,236.98423342924994,2026-01-28 17h21.22.710117 -0400,
172,0,172,up,0.3589755999855697,None,None,,,172,0,172,0,233.05139270005748,,,,,,,,,,,,,,,,,,,,233.04763110005297,233.05139270005748,233.84456740005407,233.8389074000297,1,233.84316000004765,233.84456740005407,233.84456740005407,234.33458390005399,234.33458390005399,234.3305361000821,up,0.3589755999855697,None,234.33057430002373,234.33059010002762,None,,,,,,,,,,,sub-012,001,2026-01-28_17h21.22.316,NESC3137_EEG_experiment,,2025.2.4,236.98423342924994,2026-01-28 17h21.22.710117 -0400,
173,0,173,up,0.39019249996636063,0.0440836000489071,None,,,173,0,173,0,234.33458390005399,,,,,,,,,,,,,,,,,,,,234.33071310003288,234.33458390005399,235.001327300095,234.99715770001058,1,234.9991253000917,235.001327300095,235.001327300095,235.48866350005846,235.48866350005846,235.48486460000277,up,0.39019249996636063,0.0440836000489071,235.48490060004406,235.48491720005404,None,,,,,,,,,,,sub-012,001,2026-01-28_17h21.22.316,NESC3137_EEG_experiment,,2025.2.4,236.98423342924994,2026-01-28 17h21.22.710117 -0400,
174,0,174,up,0.32715709996409714,None,None,,,174,0,174,0,235.48866350005846,,,,,,,,,,,,,,,,,,,,235.4850309001049,235.48866350005846,236.24826790008228,236.24328490009066,1,236.24573480000254,236.24826790008228,236.24826790008228,236.73472619999666,236.73472619999666,236.7308307000203,up,0.32715709996409714,None,236.73087150009815,236.7308892000001,None,,,,,,,,,,,sub-012,001,2026-01-28_17h21.22.316,NESC3137_EEG_experiment,,2025.2.4,236.98423342924994,2026-01-28 17h21.22.710117 -0400,
175,0,175,up,0.3786557000130415,None,None,,,175,0,175,0,236.73472619999666,,,,,,,,,,,,,,,,,,,,236.73101270000916,236.73472619999666,237.29292860010173,237.2891443000408,1,237.29111700004432,237.29292860010173,237.29292860010173,237.78063779999502,237.78063779999502,237.77656600007322,up,0.3786557000130415,None,237.77661530009937,237.77663840004243,None,,,,,,,,,,,sub-012,001,2026-01-28_17h21.22.316,NESC3137_EEG_experiment,,2025.2.4,236.98423342924994,2026-01-28 17h21.22.710117 -0400,
176,0,176,down,0.39777370006777346,None,None,,,176,0,176,0,237.78063779999502,,,,,,,,,,,,,,,,,,,,237.77676950010937,237.78063779999502,238.41370170004666,238.40975900006015,2,238.41177140001673,238.41370170004666,238.41370170004666,238.9012442000676,238.9012442000676,238.89736500009894,down,0.39777370006777346,None,238.89740360004362,238.89742060005665,None,,,,,,,,,,,sub-012,001,2026-01-28_17h21.22.316,NESC3137_EEG_experiment,,2025.2.4,236.98423342924994,2026-01-28 17h21.22.710117 -0400,
177,0,177,up,0.35525859997142106,None,None,,,177,0,177,0,238.9012442000676,,,,,,,,,,,,,,,,,,,,238.89754560007714,238.9012442000676,239.86890150001273,239.8638264000183,1,239.86754970008042,239.86890150001273,239.86890150001273,240.35558420000598,240.35558420000598,240.3519131001085,up,0.35525859997142106,None,240.35195880010724,240.3519767000107,None,,,,,,,,,,,sub-012,001,2026-01-28_17h21.22.316,NESC3137_EEG_experiment,,2025.2.4,236.98423342924994,2026-01-28 17h21.22.710117 -0400,
178,0,178,down,0.33984660007990897,None,None,,,178,0,178,0,240.35558420000598,,,,,,,,,,,,,,,,,,,,240.35227110004053,240.35558420000598,241.2845131000504,241.28060950001236,2,241.2826521000825,241.2845131000504,241.2845131000504,241.77218830003403,241.77218830003403,241.76807990006637,down,0.33984660007990897,None,241.7681164999958,241.7681336000096,None,,,,,,,,,,,sub-012,001,2026-01-28_17h21.22.316,NESC3137_EEG_experiment,,2025.2.4,236.98423342924994,2026-01-28 17h21.22.710117 -0400,
179,0,179,None,,,None,,,179,0,179,0,241.77218830003403,,,,,,,,,,,,,,,,,,,,241.76825310010463,241.77218830003403,242.2806741000386,242.27698020008393,2,242.27932730002794,242.2806741000386,242.2806741000386,242.76804510003421,242.76804510003421,242.76406660000794,None,,,242.76410170004237,242.76411940006074,None,,,,,,,,,,,sub-012,001,2026-01-28_17h21.22.316,NESC3137_EEG_experiment,,2025.2.4,236.98423342924994,2026-01-28 17h21.22.710117 -0400,
180,0,180,up,0.44595249998383224,None,None,,,180,0,180,0,242.76804510003421,,,,,,,,,,,,,,,,,,,,242.76428680005483,242.76804510003421,243.41778780007735,243.41400570003316,1,243.41595830000006,243.41778780007735,243.41778780007735,243.90540460008197,243.90540460008197,243.90166450000834,up,0.44595249998383224,None,243.90170330007095,243.90172560000792,None,,,,,,,,,,,sub-012,001,2026-01-28_17h21.22.316,NESC3137_EEG_experiment,,2025.2.4,236.98423342924994,2026-01-28 17h21.22.710117 -0400,
181,0,181,down,0.38121440005488694,None,None,,,181,0,181,0,243.90540460008197,,,,,,,,,,,,,,,,,,,,243.90187940001488,243.90540460008197,244.61907410004642,244.61383889999706,2,244.61739800008945,244.61907410004642,244.61907410004642,245.1095378000755,245.1095378000755,245.10560360003728,down,0.38121440005488694,None,245.10564220009837,245.10565929999575,None,,,,,,,,,,,sub-012,001,2026-01-28_17h21.22.316,NESC3137_EEG_experiment,,2025.2.4,236.98423342924994,2026-01-28 17h21.22.710117 -0400,
182,0,182,down,0.3204002999700606,None,None,,,182,0,182,0,245.1095378000755,,,,,,,,,,,,,,,,,,,,245.1057759000687,245.1095378000755,245.69913900003303,245.69336500007194,2,245.6971712000668,245.69913900003303,245.69913900003303,246.18863079999574,246.18863079999574,246.18591550004203,down,0.3204002999700606,None,246.18596070003696,246.18605210003443,None,,,,,,,,,,,sub-012,001,2026-01-28_17h21.22.316,NESC3137_EEG_experiment,,2025.2.4,236.98423342924994,2026-01-28 17h21.22.710117 -0400,
183,0,183,up,0.39820850000251085,None,None,,,183,0,183,0,246.18863079999574,,,,,,,,,,,,,,,,,,,,246.18634420004673,246.18863079999574,246.7973283000756,246.78889300010633,1,246.79097020009067,246.7973283000756,246.7973283000756,247.28460540005472,247.28460540005472,247.28088660002686,up,0.39820850000251085,None,247.28092550009023,247.28094260010403,None,,,,,,,,,,,sub-012,001,2026-01-28_17h21.22.316,NESC3137_EEG_experiment,,2025.2.4,236.98423342924994,2026-01-28 17h21.22.710117 -0400,
184,0,184,down,0.4057058000471443,None,None,,,184,0,184,0,247.28460540005472,,,,,,,,,,,,,,,,,,,,247.2810720000416,247.28460540005472,247.91786850010976,247.91422800009605,2,247.91646000009496,247.91786850010976,247.91786850010976,248.40556520002428,248.40556520002428,248.40156300005037,down,0.4057058000471443,None,248.4016211000271,248.40163920004852,None,,,,,,,,,,,sub-012,001,2026-01-28_17h21.22.316,NESC3137_EEG_experiment,,2025.2.4,236.98423342924994,2026-01-28 17h21.22.710117 -0400,
185,0,185,down,0.28096730005927384,None,None,,,185,0,185,0,248.40556520002428,,,,,,,,,,,,,,,,,,,,248.4017627000576,248.40556520002428,249.26786680007353,249.2644164999947,2,249.26649130007718,249.26786680007353,249.26786680007353,249.75539590010885,249.75539590010885,249.75234960007947,down,0.28096730005927384,None,249.75238790002186,249.75240680004936,None,,,,,,,,,,,sub-012,001,2026-01-28_17h21.22.316,NESC3137_EEG_experiment,,2025.2.4,236.98423342924994,2026-01-28 17h21.22.710117 -0400,
186,0,186,up,0.4223194000078365,None,None,,,186,0,186,0,249.75539590010885,,,,,,,,,,,,,,,,,,,,249.75251930009108,249.75539590010885,250.60120790009387,250.597496900009,1,250.59991140000056,250.60120790009387,250.60120790009387,251.08891400007997,251.08891400007997,251.08497560000978,up,0.4223194000078365,None,251.08501760009676,251.08503580000252,None,,,,,,,,,,,sub-012,001,2026-01-28_17h21.22.316,NESC3137_EEG_experiment,,2025.2.4,236.98423342924994,2026-01-28 17h21.22.710117 -0400,
187,0,187,up,0.3014220999320969,None,None,,,187,0,187,0,251.08891400007997,,,,,,,,,,,,,,,,,,,,251.0851729999995,251.08891400007997,252.00211110000964,251.99728630005848,1,252.00089100003242,252.00211110000964,252.00211110000964,252.4889079000568,252.4889079000568,252.4851189000765,up,0.3014220999320969,None,252.48520910006482,252.4852296001045,None,,,,,,,,,,,sub-012,001,2026-01-28_17h21.22.316,NESC3137_EEG_experiment,,2025.2.4,236.98423342924994,2026-01-28 17h21.22.710117 -0400,
188,0,188,None,,,None,,,188,0,188,0,252.4889079000568,,,,,,,,,,,,,,,,,,,,252.48555179999676,252.4889079000568,253.11379990004934,253.10980100010056,2,253.1119196000509,253.11379990004934,253.11379990004934,253.60138640005607,253.60138640005607,253.59742490004282,None,,,253.5974594000727,253.5974816000089,None,,,,,,,,,,,sub-012,001,2026-01-28_17h21.22.316,NESC3137_EEG_experiment,,2025.2.4,236.98423342924994,2026-01-28 17h21.22.710117 -0400,
189,0,189,up,0.32118629990145564,None,None,,,189,0,189,0,253.60138640005607,,,,,,,,,,,,,,,,,,,,253.5976594000822,253.60138640005607,254.2903000001097,254.2851589000784,1,254.28894950007088,254.2903000001097,254.2903000001097,254.78035630006343,254.78035630006343,254.77651200001128,up,0.32118629990145564,None,254.776549500064,254.77656660007779,None,,,,,,,,,,,sub-012,001,2026-01-28_17h21.22.316,NESC3137_EEG_experiment,,2025.2.4,236.98423342924994,2026-01-28 17h21.22.710117 -0400,
190,0,190,up,0.41714509995654225,None,None,,,190,0,190,0,254.78035630006343,,,,,,,,,,,,,,,,,,,,254.77668960008305,254.78035630006343,255.3314763000235,255.32650750002358,1,255.32856300007552,255.3314763000235,255.3314763000235,255.82218090002425,255.82218090002425,255.81823010009248,up,0.41714509995654225,None,255.81829450000077,255.8183123000199,None,,,,,,,,,,,sub-012,001,2026-01-28_17h21.22.316,NESC3137_EEG_experiment,,2025.2.4,236.98423342924994,2026-01-28 17h21.22.710117 -0400,
191,0,191,down,0.4431498000631109,None,None,,,191,0,191,0,255.82218090002425,,,,,,,,,,,,,,,,,,,,255.81843980005942,255.82218090002425,256.38448610005435,256.3807543000439,2,256.383006600081,256.38448610005435,256.38448610005435,256.87197900004685,256.87197900004685,256.86912090005353,down,0.4431498000631109,None,256.869168800069,256.8691919000121,None,,,,,,,,,,,sub-012,001,2026-01-28_17h21.22.316,NESC3137_EEG_experiment,,2025.2.4,236.98423342924994,2026-01-28 17h21.22.710117 -0400,
192,0,192,down,0.3202000999590382,None,None,,,192,0,192,0,256.87197900004685,,,,,,,,,,,,,,,,,,,,256.8693197000539,256.87197900004685,257.7595051000826,257.75549990008585,2,257.7577168000862,257.7595051000826,257.7595051000826,258.2470167001011,258.2470167001011,258.2431194999954,down,0.3202000999590382,None,258.24315990007017,258.2431785000954,None,,,,,,,,,,,sub-012,001,2026-01-28_17h21.22.316,NESC3137_EEG_experiment,,2025.2.4,236.98423342924994,2026-01-28 17h21.22.710117 -0400,
193,0,193,up,0.4579022000543773,None,None,,,193,0,193,0,258.2470167001011,,,,,,,,,,,,,,,,,,,,258.2433052000124,258.2470167001011,259.1095804000506,259.1054911999963,1,259.1079326000763,259.1095804000506,259.1095804000506,259.5972237000242,259.5972237000242,259.5940561000025,up,0.4579022000543773,None,259.59409430006053,259.5941115000751,None,,,,,,,,,,,sub-012,001,2026-01-28_17h21.22.316,NESC3137_EEG_experiment,,2025.2.4,236.98423342924994,2026-01-28 17h21.22.710117 -0400,
194,0,194,down,0.3601378999883309,None,None,,,194,0,194,0,259.5972237000242,,,,,,,,,,,,,,,,,,,,259.5942560000112,259.5972237000242,260.35529190010857,260.35161570005585,2,260.35359160008375,260.35529190010857,260.35529190010857,260.84282680007163,260.84282680007163,260.8390103999991,down,0.3601378999883309,None,260.83904990006704,260.8390719000017,None,,,,,,,,,,,sub-012,001,2026-01-28_17h21.22.316,NESC3137_EEG_experiment,,2025.2.4,236.98423342924994,2026-01-28 17h21.22.710117 -0400,
195,0,195,up,0.4306215000106022,None,None,,,195,0,195,0,260.84282680007163,,,,,,,,,,,,,,,,,,,,260.8391948000062,260.84282680007163,261.3532915000105,261.347961600055,1,261.3519454000052,261.3532915000105,261.3532915000105,261.84290849999525,261.84290849999525,261.8390246001072,up,0.4306215000106022,None,261.83906150003895,261.8390790000558,None,,,,,,,,,,,sub-012,001,2026-01-28_17h21.22.316,NESC3137_EEG_experiment,,2025.2.4,236.98423342924994,2026-01-28 17h21.22.710117 -0400,
196,0,196,None,,,None,,,196,0,196,0,261.84290849999525,,,,,,,,,,,,,,,,,,,,261.83919530001003,261.84290849999525,262.34698550007306,262.3431907000486,1,262.34554490004666,262.34698550007306,262.34698550007306,262.8352786001051,262.8352786001051,262.8341766000958,None,,,262.83421240001917,262.8342307000421,None,,,,,,,,,,,sub-012,001,2026-01-28_17h21.22.316,NESC3137_EEG_experiment,,2025.2.4,236.98423342924994,2026-01-28 17h21.22.710117 -0400,
197,0,197,up,0.4649192000506446,None,None,,,197,0,197,0,262.8352786001051,,,,,,,,,,,,,,,,,,,,262.8343585000839,262.8352786001051,263.7188300000271,263.71455260005314,1,263.71691860002466,263.7188300000271,263.7188300000271,264.20530520007014,264.20530520007014,264.201463400037,up,0.4649192000506446,None,264.20150730002206,264.20152600004803,None,,,,,,,,,,,sub-012,001,2026-01-28_17h21.22.316,NESC3137_EEG_experiment,,2025.2.4,236.98423342924994,2026-01-28 17h21.22.710117 -0400,
198,0,198,up,0.41145310003776103,None,None,,,198,0,198,0,264.20530520007014,,,,,,,,,,,,,,,,,,,,264.20164470002055,264.20530520007014,264.7119409000734,264.706767900032,1,264.71059090003837,264.7119409000734,264.7119409000734,265.20116140006576,265.20116140006576,265.19737190008163,up,0.41145310003776103,None,265.1974128000438,265.1974304000614,None,,,,,,,,,,,sub-012,001,2026-01-28_17h21.22.316,NESC3137_EEG_experiment,,2025.2.4,236.98423342924994,2026-01-28 17h21.22.710117 -0400,
199,0,199,up,0.3104718999238685,0.16404699999839067,None,,,199,0,199,0,265.20116140006576,,,,,,,,,,,,,,,,,,,,265.19755430007353,265.20116140006576,265.8969420000212,265.89311200007796,1,265.89521260000765,265.8969420000212,265.8969420000212,266.38471040001605,266.38471040001605,266.3805893000681,up,0.3104718999238685,0.16404699999839067,266.38063050003257,266.3806470000418,None,,,,,,,,,,,sub-012,001,2026-01-28_17h21.22.316,NESC3137_EEG_experiment,,2025.2.4,236.98423342924994,2026-01-28 17h21.22.710117 -0400,
200,0,200,down,0.35216490004677325,None,space,5.6854201999958605,None,200,0,200,0,266.38471040001605,,,,,,,,,,,,,,,,,,,,266.3807730000699,266.38471040001605,267.14324840006884,267.1388840000145,2,267.1410085000098,267.14324840006884,267.14324840006884,267.6303774000844,267.6303774000844,267.62639079999644,down,0.35216490004677325,None,267.62644230003934,303.31395830004476,space,267.6303774000844,297.6178806000389,297.6262192000868,297.6262192000868,5.6854201999958605,None,,,,,sub-012,001,2026-01-28_17h21.22.316,NESC3137_EEG_experiment,,2025.2.4,236.98423342924994,2026-01-28 17h21.22.710117 -0400,
201,0,201,up,0.3073347000172362,None,None,,,201,0,201,0,303.31770490005147,,,,,,,,,,,,,,,,,,,,303.3140951000387,303.31770490005147,304.08872180001345,304.08458060002886,1,304.0865121000679,304.08872180001345,304.08872180001345,304.57619660010096,304.57619660010096,304.5726265000412,up,0.3073347000172362,None,304.57266679999884,304.5726858000271,None,,,,,,,,,,,sub-012,001,2026-01-28_17h21.22.316,NESC3137_EEG_experiment,,2025.2.4,236.98423342924994,2026-01-28 17h21.22.710117 -0400,
202,0,202,up,0.2355718999169767,0.17608920007478446,None,,,202,0,202,0,304.57619660010096,,,,,,,,,,,,,,,,,,,,304.5728030001046,304.57619660010096,305.4678369000321,305.4636391000822,1,305.4657449000515,305.4678369000321,305.4678369000321,305.9552067000186,305.9552067000186,305.95148770010564,up,0.2355718999169767,0.17608920007478446,305.9515343999956,305.951555000036,None,,,,,,,,,,,sub-012,001,2026-01-28_17h21.22.316,NESC3137_EEG_experiment,,2025.2.4,236.98423342924994,2026-01-28 17h21.22.710117 -0400,
