thisN,thisTrialN,thisRepN,key_resp_3.keys,key_resp_4.keys,key_resp_3.rt,key_resp_3.duration,key_resp_4.rt,key_resp_4.duration,trials.thisRepN,trials.thisTrialN,trials.thisN,trials.thisIndex,thisRow.t,notes,lsl_stream.started,lsl_stream.stopped,setup.started,setup.stopped,welcome.started,welcomeimg.started,key_resp.started,welcome.stopped,key_resp.keys,key_resp.rt,key_resp.duration,instruction.started,instructionimg.started,key_resp_2.started,instruction.stopped,key_resp_2.keys,key_resp_2.rt,key_resp_2.duration,fixation.started,cross.started,cross.stopped,fixation.stopped,trigger,face.started,faceStim.started,key_resp_3.started,face.stopped,trials.key_resp_3.keys,break_2.started,break_2.stopped,trials.key_resp_4.keys,trials.key_resp_3.rt,trials.key_resp_3.duration,faceStim.stopped,key_resp_3.stopped,breakimg.started,break2img.started,key_resp_4.started,breakimg.stopped,trials.key_resp_4.rt,trials.key_resp_4.duration,end.started,finish.started,finish.stopped,end.stopped,participant,session,date,expName,expVersion,psychopyVersion,frameRate,expStart,
,,,,,,,,,,,,,,,0.009399099999995997,0.00945990000002439,,,,,,,,,,,,,,,,,,,,,,,,,,,,,,,,,,,,,,,,,,,,002,001,2026-01-21_16h24.17.410,NESC3137_EEG_experiment,,2025.1.1,143.14650328877173,2026-01-21 16h24.39.611710 -0400,
,,,,,,,,,,,,,,,,,0.00947499999995216,0.009491499999967346,,,,,,,,,,,,,,,,,,,,,,,,,,,,,,,,,,,,,,,,,,002,001,2026-01-21_16h24.17.410,NESC3137_EEG_experiment,,2025.1.1,143.14650328877173,2026-01-21 16h24.39.611710 -0400,
,,,,,,,,,,,,,,,,,,,0.009531899999956295,0.01667409999993197,0.01667409999993197,11.266636699999935,space,11.152543199999968,None,,,,,,,,,,,,,,,,,,,,,,,,,,,,,,,,,,,002,001,2026-01-21_16h24.17.410,NESC3137_EEG_experiment,,2025.1.1,143.14650328877173,2026-01-21 16h24.39.611710 -0400,
,,,,,,,,,,,,,,,,,,,,,,,,,,11.266690599999947,11.27086589999999,11.27086589999999,17.71286580000003,space,6.434610000000021,None,,,,,,,,,,,,,,,,,,,,,,,,,,,,002,001,2026-01-21_16h24.17.410,NESC3137_EEG_experiment,,2025.1.1,143.14650328877173,2026-01-21 16h24.39.611710 -0400,
0,0,0,None,None,,,,,0,0,0,0,17.718397799999934,,,,,,,,,,,,,,,,,,,,17.714704900000015,17.718397799999934,18.537413499999957,18.510202999999933,2,18.533102499999927,18.537413499999957,18.537413499999957,19.011784000000034,None,19.01182349999999,19.01184379999995,None,,,,,,,,,,,,,,,002,001,2026-01-21_16h24.17.410,NESC3137_EEG_experiment,,2025.1.1,143.14650328877173,2026-01-21 16h24.39.611710 -0400,
1,0,1,None,None,,,,,1,0,1,0,19.01964579999992,,,,,,,,,,,,,,,,,,,,19.0119598,19.01964579999992,19.84901119999995,19.81753219999996,2,19.84693279999999,19.84901119999995,19.84901119999995,20.322946499999944,None,20.32298639999999,20.32301259999997,None,,,,,,,,,,,,,,,002,001,2026-01-21_16h24.17.410,NESC3137_EEG_experiment,,2025.1.1,143.14650328877173,2026-01-21 16h24.39.611710 -0400,
2,0,2,up,None,0.42306470000005447,None,,,2,0,2,0,20.330023299999993,,,,,,,,,,,,,,,,,,,,20.323126499999944,20.330023299999993,21.138227400000005,21.121635500000025,1,21.136192199999982,21.138227400000005,21.138227400000005,21.62649090000002,up,21.626533999999992,21.626549899999986,None,0.42306470000005447,None,,,,,,,,,,,,,002,001,2026-01-21_16h24.17.410,NESC3137_EEG_experiment,,2025.1.1,143.14650328877173,2026-01-21 16h24.39.611710 -0400,
3,0,3,down,None,0.3370397999999568,0.13581980000003568,,,3,0,3,0,21.633848100000023,,,,,,,,,,,,,,,,,,,,21.626666799999953,21.633848100000023,22.184378100000004,22.16834849999998,2,22.182565899999986,22.184378100000004,22.184378100000004,22.674122199999942,down,22.6741667,22.67418509999993,None,0.3370397999999568,0.13581980000003568,,,,,,,,,,,,,002,001,2026-01-21_16h24.17.410,NESC3137_EEG_experiment,,2025.1.1,143.14650328877173,2026-01-21 16h24.39.611710 -0400,
4,0,4,up,None,0.3692451000000574,None,,,4,0,4,0,22.68029530000001,,,,,,,,,,,,,,,,,,,,22.67437970000003,22.68029530000001,23.48803529999998,23.464518999999996,1,23.485896599999933,23.48803529999998,23.48803529999998,23.967385299999933,up,23.96743259999994,23.967450600000006,None,0.3692451000000574,None,,,,,,,,,,,,,002,001,2026-01-21_16h24.17.410,NESC3137_EEG_experiment,,2025.1.1,143.14650328877173,2026-01-21 16h24.39.611710 -0400,
5,0,5,down,None,0.27873030000000654,0.12801259999991998,,,5,0,5,0,23.973427000000015,,,,,,,,,,,,,,,,,,,,23.96758299999999,23.973427000000015,24.52245479999999,24.501187999999956,1,24.51991190000001,24.52245479999999,24.52245479999999,25.00257220000003,down,25.00263199999995,25.00266399999998,None,0.27873030000000654,0.12801259999991998,,,,,,,,,,,,,002,001,2026-01-21_16h24.17.410,NESC3137_EEG_experiment,,2025.1.1,143.14650328877173,2026-01-21 16h24.39.611710 -0400,
6,0,6,up,None,0.4391891000000214,None,,,6,0,6,0,25.010275999999976,,,,,,,,,,,,,,,,,,,,25.00283289999993,25.010275999999976,25.754046099999982,25.731267600000024,1,25.751252000000022,25.754046099999982,25.754046099999982,26.232908299999963,up,26.232951099999923,26.23297589999993,None,0.4391891000000214,None,,,,,,,,,,,,,002,001,2026-01-21_16h24.17.410,NESC3137_EEG_experiment,,2025.1.1,143.14650328877173,2026-01-21 16h24.39.611710 -0400,
7,0,7,up,None,0.40628239999989546,None,,,7,0,7,0,26.239868,,,,,,,,,,,,,,,,,,,,26.23308810000003,26.239868,27.074932699999977,27.05959539999992,1,27.072658299999944,27.074932699999977,27.074932699999977,27.56276589999993,up,27.562826599999994,27.56285719999994,None,0.40628239999989546,None,,,,,,,,,,,,,002,001,2026-01-21_16h24.17.410,NESC3137_EEG_experiment,,2025.1.1,143.14650328877173,2026-01-21 16h24.39.611710 -0400,
8,0,8,down,None,0.3438744999999699,None,,,8,0,8,0,27.569359200000008,,,,,,,,,,,,,,,,,,,,27.563003799999933,27.569359200000008,28.481401699999992,28.45352779999996,2,28.4791874,28.481401699999992,28.481401699999992,28.956122299999947,down,28.9561731,28.95619099999999,None,0.3438744999999699,None,,,,,,,,,,,,,002,001,2026-01-21_16h24.17.410,NESC3137_EEG_experiment,,2025.1.1,143.14650328877173,2026-01-21 16h24.39.611710 -0400,
9,0,9,up,None,0.33732150000003003,None,,,9,0,9,0,28.962159799999995,,,,,,,,,,,,,,,,,,,,28.956305499999985,28.962159799999995,29.75988099999995,29.72139709999999,1,29.758004700000015,29.75988099999995,29.75988099999995,30.228493500000013,up,30.228548899999964,30.228566799999953,None,0.33732150000003003,None,,,,,,,,,,,,,002,001,2026-01-21_16h24.17.410,NESC3137_EEG_experiment,,2025.1.1,143.14650328877173,2026-01-21 16h24.39.611710 -0400,
10,0,10,down,None,0.3939589999999953,None,,,10,0,10,0,30.23519509999994,,,,,,,,,,,,,,,,,,,,30.22870279999995,30.23519509999994,30.871233599999982,30.85453469999993,2,30.86935429999994,30.871233599999982,30.871233599999982,31.35898839999993,down,31.35903810000002,31.35906060000002,None,0.3939589999999953,None,,,,,,,,,,,,,002,001,2026-01-21_16h24.17.410,NESC3137_EEG_experiment,,2025.1.1,143.14650328877173,2026-01-21 16h24.39.611710 -0400,
11,0,11,up,None,0.33594159999995554,0.12021330000004582,,,11,0,11,0,31.3658279,,,,,,,,,,,,,,,,,,,,31.359195,31.3658279,32.36928990000001,32.34533049999993,1,32.3668328,32.36928990000001,32.36928990000001,32.84794420000003,up,32.84799190000001,32.848009700000034,None,0.33594159999995554,0.12021330000004582,,,,,,,,,,,,,002,001,2026-01-21_16h24.17.410,NESC3137_EEG_experiment,,2025.1.1,143.14650328877173,2026-01-21 16h24.39.611710 -0400,
12,0,12,down,None,0.4256344000000354,None,,,12,0,12,0,32.854093199999966,,,,,,,,,,,,,,,,,,,,32.84813120000001,32.854093199999966,33.46364349999999,33.438579600000025,1,33.46176779999996,33.46364349999999,33.46364349999999,33.940343600000006,down,33.940439699999956,33.94046459999993,None,0.4256344000000354,None,,,,,,,,,,,,,002,001,2026-01-21_16h24.17.410,NESC3137_EEG_experiment,,2025.1.1,143.14650328877173,2026-01-21 16h24.39.611710 -0400,
13,0,13,up,None,0.36976530000004004,None,,,13,0,13,0,33.94528029999992,,,,,,,,,,,,,,,,,,,,33.94073259999993,33.94528029999992,34.88751709999997,34.86885480000001,1,34.88473449999992,34.88751709999997,34.88751709999997,35.37547129999996,up,35.3755132,35.37553009999999,None,0.36976530000004004,None,,,,,,,,,,,,,002,001,2026-01-21_16h24.17.410,NESC3137_EEG_experiment,,2025.1.1,143.14650328877173,2026-01-21 16h24.39.611710 -0400,
14,0,14,up,None,0.4001335000000381,None,,,14,0,14,0,35.382396799999924,,,,,,,,,,,,,,,,,,,,35.37564020000002,35.382396799999924,36.06510459999993,36.0491131,1,36.062965599999984,36.06510459999993,36.06510459999993,36.552970200000004,up,36.553028999999924,36.55306059999998,None,0.4001335000000381,None,,,,,,,,,,,,,002,001,2026-01-21_16h24.17.410,NESC3137_EEG_experiment,,2025.1.1,143.14650328877173,2026-01-21 16h24.39.611710 -0400,
15,0,15,None,None,,,,,15,0,15,0,36.560774700000024,,,,,,,,,,,,,,,,,,,,36.55323390000001,36.560774700000024,37.30046689999995,37.28417819999993,2,37.29775319999999,37.30046689999995,37.30046689999995,37.7883908,None,37.78842810000003,37.78844700000002,None,,,,,,,,,,,,,,,002,001,2026-01-21_16h24.17.410,NESC3137_EEG_experiment,,2025.1.1,143.14650328877173,2026-01-21 16h24.39.611710 -0400,
16,0,16,down,None,0.4684630000000425,None,,,16,0,16,0,37.796249699999976,,,,,,,,,,,,,,,,,,,,37.78856129999997,37.796249699999976,38.46104379999997,38.44107699999995,2,38.45909089999998,38.46104379999997,38.46104379999997,38.948161700000014,down,38.94822119999992,38.948251400000004,None,0.4684630000000425,None,,,,,,,,,,,,,002,001,2026-01-21_16h24.17.410,NESC3137_EEG_experiment,,2025.1.1,143.14650328877173,2026-01-21 16h24.39.611710 -0400,
17,0,17,down,None,0.45441519999997126,None,,,17,0,17,0,38.95498250000003,,,,,,,,,,,,,,,,,,,,38.94842080000001,38.95498250000003,39.88283349999995,39.85887700000001,2,39.880258000000026,39.88283349999995,39.88283349999995,40.36104219999993,down,40.36108530000001,40.361102800000026,None,0.45441519999997126,None,,,,,,,,,,,,,002,001,2026-01-21_16h24.17.410,NESC3137_EEG_experiment,,2025.1.1,143.14650328877173,2026-01-21 16h24.39.611710 -0400,
18,0,18,up,None,0.4377110000000357,None,,,18,0,18,0,40.367885799999954,,,,,,,,,,,,,,,,,,,,40.36121359999993,40.367885799999954,40.89152560000002,40.87618109999994,1,40.88953229999993,40.89152560000002,40.89152560000002,41.38112179999996,up,41.38116830000001,41.381186699999944,None,0.4377110000000357,None,,,,,,,,,,,,,002,001,2026-01-21_16h24.17.410,NESC3137_EEG_experiment,,2025.1.1,143.14650328877173,2026-01-21 16h24.39.611710 -0400,
19,0,19,down,None,0.3241320000000769,0.12023729999998523,,,19,0,19,0,41.38678829999992,,,,,,,,,,,,,,,,,,,,41.381305,41.38678829999992,42.245067399999925,42.221048999999994,1,42.24304489999997,42.245067399999925,42.245067399999925,42.72506899999996,down,42.72511869999994,42.72513679999997,None,0.3241320000000769,0.12023729999998523,,,,,,,,,,,,,002,001,2026-01-21_16h24.17.410,NESC3137_EEG_experiment,,2025.1.1,143.14650328877173,2026-01-21 16h24.39.611710 -0400,
20,0,20,down,None,0.3918083999999453,None,,,20,0,20,0,42.73131939999996,,,,,,,,,,,,,,,,,,,,42.72525499999995,42.73131939999996,43.48142539999992,43.46710539999992,2,43.47962919999998,43.48142539999992,43.48142539999992,43.969934999999964,down,43.96998759999997,43.97000579999997,None,0.3918083999999453,None,,,,,,,,,,,,,002,001,2026-01-21_16h24.17.410,NESC3137_EEG_experiment,,2025.1.1,143.14650328877173,2026-01-21 16h24.39.611710 -0400,
21,0,21,down,None,0.45188740000003236,None,,,21,0,21,0,43.97533379999993,,,,,,,,,,,,,,,,,,,,43.970131400000014,43.97533379999993,44.78960080000002,44.774434999999926,2,44.78760890000001,44.78960080000002,44.78960080000002,45.277781000000004,down,45.27783039999997,45.27784969999993,None,0.45188740000003236,None,,,,,,,,,,,,,002,001,2026-01-21_16h24.17.410,NESC3137_EEG_experiment,,2025.1.1,143.14650328877173,2026-01-21 16h24.39.611710 -0400,
22,0,22,down,None,0.37875469999994493,None,,,22,0,22,0,45.28483789999996,,,,,,,,,,,,,,,,,,,,45.27797639999994,45.28483789999996,46.01470389999997,46.00104539999995,2,46.01291100000003,46.01470389999997,46.01470389999997,46.50190680000003,down,46.501970299999925,46.502002999999945,None,0.37875469999994493,None,,,,,,,,,,,,,002,001,2026-01-21_16h24.17.410,NESC3137_EEG_experiment,,2025.1.1,143.14650328877173,2026-01-21 16h24.39.611710 -0400,
23,0,23,down,None,0.3322939000000815,None,,,23,0,23,0,46.508572099999924,,,,,,,,,,,,,,,,,,,,46.502182699999935,46.508572099999924,47.461089300000026,47.4464246,2,47.45901229999993,47.461089300000026,47.461089300000026,47.94816470000001,down,47.9482127,47.94823039999994,None,0.3322939000000815,None,,,,,,,,,,,,,002,001,2026-01-21_16h24.17.410,NESC3137_EEG_experiment,,2025.1.1,143.14650328877173,2026-01-21 16h24.39.611710 -0400,
24,0,24,up,None,0.38750549999997475,None,,,24,0,24,0,47.95597650000002,,,,,,,,,,,,,,,,,,,,47.94839200000001,47.95597650000002,48.85374460000003,48.83835590000001,1,48.85086039999999,48.85374460000003,48.85374460000003,49.33633129999998,up,49.336381200000005,49.336399700000015,None,0.38750549999997475,None,49.342175699999984,49.342175699999984,,,,,,,,,,,002,001,2026-01-21_16h24.17.410,NESC3137_EEG_experiment,,2025.1.1,143.14650328877173,2026-01-21 16h24.39.611710 -0400,
25,0,25,up,None,0.40945190000002185,None,,,25,0,25,0,49.342175699999984,,,,,,,,,,,,,,,,,,,,49.33655269999997,49.342175699999984,49.967856499999925,49.953081699999984,1,49.96569099999999,49.967856499999925,49.967856499999925,50.456266899999946,up,50.45638329999997,50.45640530000003,None,0.40945190000002185,None,,,,,,,,,,,,,002,001,2026-01-21_16h24.17.410,NESC3137_EEG_experiment,,2025.1.1,143.14650328877173,2026-01-21 16h24.39.611710 -0400,
26,0,26,up,None,0.3774546999999302,None,,,26,0,26,0,50.46247800000003,,,,,,,,,,,,,,,,,,,,50.45657110000002,50.46247800000003,51.41573040000003,51.399993600000016,1,51.41387329999998,51.41573040000003,51.41573040000003,51.905174999999986,up,51.90524579999999,51.90526729999999,None,0.3774546999999302,None,,,,,,,,,,,,,002,001,2026-01-21_16h24.17.410,NESC3137_EEG_experiment,,2025.1.1,143.14650328877173,2026-01-21 16h24.39.611710 -0400,
27,0,27,None,None,,,,,27,0,27,0,51.91078719999996,,,,,,,,,,,,,,,,,,,,51.90547600000002,51.91078719999996,52.73733459999994,52.72330069999998,1,52.735295199999996,52.73733459999994,52.73733459999994,53.22431879999999,None,53.224358499999994,53.22437609999997,None,,,,,,,,,,,,,,,002,001,2026-01-21_16h24.17.410,NESC3137_EEG_experiment,,2025.1.1,143.14650328877173,2026-01-21 16h24.39.611710 -0400,
28,0,28,up,None,0.39088519999995697,None,,,28,0,28,0,53.23092380000003,,,,,,,,,,,,,,,,,,,,53.224491599999965,53.23092380000003,54.07434760000001,54.05754209999998,2,54.072239399999944,54.07434760000001,54.07434760000001,54.56260079999993,up,54.56264349999992,54.5626608,None,0.39088519999995697,None,,,,,,,,,,,,,002,001,2026-01-21_16h24.17.410,NESC3137_EEG_experiment,,2025.1.1,143.14650328877173,2026-01-21 16h24.39.611710 -0400,
29,0,29,down,None,0.45991700000001856,None,,,29,0,29,0,54.56997549999994,,,,,,,,,,,,,,,,,,,,54.56277299999999,54.56997549999994,55.38937669999996,55.37614050000002,2,55.38657809999995,55.38937669999996,55.38937669999996,55.87603089999993,down,55.87606570000003,55.87608130000001,None,0.45991700000001856,None,55.8826914,55.8826914,,,,,,,,,,,002,001,2026-01-21_16h24.17.410,NESC3137_EEG_experiment,,2025.1.1,143.14650328877173,2026-01-21 16h24.39.611710 -0400,
30,0,30,up,None,0.41809890000001815,None,,,30,0,30,0,55.8826914,,,,,,,,,,,,,,,,,,,,55.87618229999998,55.8826914,56.54327920000003,56.530104800000004,1,56.54152709999994,56.54327920000003,56.54327920000003,57.03153669999995,up,57.03158189999999,57.03159840000001,None,0.41809890000001815,None,,,,,,,,,,,,,002,001,2026-01-21_16h24.17.410,NESC3137_EEG_experiment,,2025.1.1,143.14650328877173,2026-01-21 16h24.39.611710 -0400,
31,0,31,down,None,0.33817290000001776,0.13608929999998054,,,31,0,31,0,57.03749370000003,,,,,,,,,,,,,,,,,,,,57.031712099999936,57.03749370000003,57.66306580000003,57.64849179999999,2,57.66065949999995,57.66306580000003,57.66306580000003,58.14984649999997,down,58.14989159999993,58.149909200000025,None,0.33817290000001776,0.13608929999998054,,,,,,,,,,,,,002,001,2026-01-21_16h24.17.410,NESC3137_EEG_experiment,,2025.1.1,143.14650328877173,2026-01-21 16h24.39.611710 -0400,
32,0,32,up,None,0.466070899999977,None,,,32,0,32,0,58.15750509999998,,,,,,,,,,,,,,,,,,,,58.15002449999997,58.15750509999998,59.135827199999994,59.1231679,1,59.13383759999999,59.135827199999994,59.135827199999994,59.62307479999993,up,59.62311,59.623125800000025,None,0.466070899999977,None,59.63017930000001,59.63017930000001,,,,,,,,,,,002,001,2026-01-21_16h24.17.410,NESC3137_EEG_experiment,,2025.1.1,143.14650328877173,2026-01-21 16h24.39.611710 -0400,
33,0,33,down,None,0.42550599999992755,None,,,33,0,33,0,59.63017930000001,,,,,,,,,,,,,,,,,,,,59.62323409999999,59.63017930000001,60.31180889999996,60.29725209999992,2,60.30987629999993,60.31180889999996,60.31180889999996,60.79978440000002,down,60.79983440000001,60.79985599999998,None,0.42550599999992755,None,,,,,,,,,,,,,002,001,2026-01-21_16h24.17.410,NESC3137_EEG_experiment,,2025.1.1,143.14650328877173,2026-01-21 16h24.39.611710 -0400,
34,0,34,up,None,0.3899459999998953,None,,,34,0,34,0,60.80650430000003,,,,,,,,,,,,,,,,,,,,60.79998109999997,60.80650430000003,61.73161640000001,61.717862999999966,1,61.72974779999993,61.73161640000001,61.73161640000001,62.21857060000002,up,62.21861349999995,62.218631399999936,None,0.3899459999998953,None,,,,,,,,,,,,,002,001,2026-01-21_16h24.17.410,NESC3137_EEG_experiment,,2025.1.1,143.14650328877173,2026-01-21 16h24.39.611710 -0400,
35,0,35,down,None,0.36881349999998747,0.09622730000000956,,,35,0,35,0,62.22678259999998,,,,,,,,,,,,,,,,,,,,62.218755399999964,62.22678259999998,63.02450729999998,63.01052440000001,1,63.02202579999994,63.02450729999998,63.02450729999998,63.51253989999998,down,63.512583399999926,63.512599799999975,None,0.36881349999998747,0.09622730000000956,,,,,,,,,,,,,002,001,2026-01-21_16h24.17.410,NESC3137_EEG_experiment,,2025.1.1,143.14650328877173,2026-01-21 16h24.39.611710 -0400,
36,0,36,down,None,0.47776900000008027,None,,,36,0,36,0,63.51961189999997,,,,,,,,,,,,,,,,,,,,63.5127119,63.51961189999997,64.28354079999997,64.26995169999998,2,64.28158689999998,64.28354079999997,64.28354079999997,64.77254879999998,down,64.77272529999993,64.77274639999996,None,0.47776900000008027,None,,,,,,,,,,,,,002,001,2026-01-21_16h24.17.410,NESC3137_EEG_experiment,,2025.1.1,143.14650328877173,2026-01-21 16h24.39.611710 -0400,
37,0,37,down,None,0.3670646000000488,None,,,37,0,37,0,64.7774521,,,,,,,,,,,,,,,,,,,,64.77292,64.7774521,65.46666010000001,65.4529996,2,65.46479069999998,65.46666010000001,65.46666010000001,65.95379029999992,down,65.95383859999993,65.9538589,None,0.3670646000000488,None,,,,,,,,,,,,,002,001,2026-01-21_16h24.17.410,NESC3137_EEG_experiment,,2025.1.1,143.14650328877173,2026-01-21 16h24.39.611710 -0400,
38,0,38,down,None,0.38879740000004404,None,,,38,0,38,0,65.96107549999999,,,,,,,,,,,,,,,,,,,,65.95397739999999,65.96107549999999,66.63641919999998,66.62145950000001,2,66.6344087,66.63641919999998,66.63641919999998,67.12317050000001,down,67.12321810000003,67.1232354,None,0.38879740000004404,None,,,,,,,,,,,,,002,001,2026-01-21_16h24.17.410,NESC3137_EEG_experiment,,2025.1.1,143.14650328877173,2026-01-21 16h24.39.611710 -0400,
39,0,39,down,None,0.4044869000000517,None,,,39,0,39,0,67.13117319999992,,,,,,,,,,,,,,,,,,,,67.12335410000003,67.13117319999992,67.96522930000003,67.9499032,2,67.96350469999993,67.96522930000003,67.96522930000003,68.45456739999997,down,68.45463789999997,68.4546593,None,0.4044869000000517,None,,,,,,,,,,,,,002,001,2026-01-21_16h24.17.410,NESC3137_EEG_experiment,,2025.1.1,143.14650328877173,2026-01-21 16h24.39.611710 -0400,
40,0,40,down,None,0.3802269000000251,None,,,40,0,40,0,68.46020899999996,,,,,,,,,,,,,,,,,,,,68.4548317,68.46020899999996,69.00516819999996,68.98798739999995,2,69.00241699999992,69.00516819999996,69.00516819999996,69.49411150000003,down,69.49415539999995,69.49417299999993,None,0.3802269000000251,None,,,,,,,,,,,,,002,001,2026-01-21_16h24.17.410,NESC3137_EEG_experiment,,2025.1.1,143.14650328877173,2026-01-21 16h24.39.611710 -0400,
41,0,41,down,None,0.42495369999994637,None,,,41,0,41,0,69.50058960000001,,,,,,,,,,,,,,,,,,,,69.49430280000001,69.50058960000001,70.2402601,70.224336,2,70.23814049999999,70.2402601,70.2402601,70.72857590000001,down,70.72863740000003,70.7286689,None,0.42495369999994637,None,,,,,,,,,,,,,002,001,2026-01-21_16h24.17.410,NESC3137_EEG_experiment,,2025.1.1,143.14650328877173,2026-01-21 16h24.39.611710 -0400,
42,0,42,down,None,0.45162310000000616,None,,,42,0,42,0,70.73538099999996,,,,,,,,,,,,,,,,,,,,70.72881899999993,70.73538099999996,71.34166459999994,71.32731369999999,2,71.33951839999997,71.34166459999994,71.34166459999994,71.82823229999997,down,71.82829129999993,71.82832229999997,None,0.45162310000000616,None,,,,,,,,,,,,,002,001,2026-01-21_16h24.17.410,NESC3137_EEG_experiment,,2025.1.1,143.14650328877173,2026-01-21 16h24.39.611710 -0400,
43,0,43,up,None,0.45498669999994945,None,,,43,0,43,0,71.83502999999996,,,,,,,,,,,,,,,,,,,,71.8284936,71.83502999999996,72.80221599999993,72.78675290000001,1,72.79853879999996,72.80221599999993,72.80221599999993,73.28945469999996,up,73.28952089999996,73.28954349999992,None,0.45498669999994945,None,,,,,,,,,,,,,002,001,2026-01-21_16h24.17.410,NESC3137_EEG_experiment,,2025.1.1,143.14650328877173,2026-01-21 16h24.39.611710 -0400,
44,0,44,down,None,0.36211229999992156,None,,,44,0,44,0,73.29603750000001,,,,,,,,,,,,,,,,,,,,73.28970830000003,73.29603750000001,74.02317159999996,74.00429689999999,2,74.02131079999992,74.02317159999996,74.02317159999996,74.51127589999999,down,74.5113192,74.5113364,None,0.36211229999992156,None,,,,,,,,,,,,,002,001,2026-01-21_16h24.17.410,NESC3137_EEG_experiment,,2025.1.1,143.14650328877173,2026-01-21 16h24.39.611710 -0400,
45,0,45,down,None,0.4026139999999714,None,,,45,0,45,0,74.51926309999999,,,,,,,,,,,,,,,,,,,,74.51146629999994,74.51926309999999,75.49460420000003,75.47625210000001,2,75.49241469999993,75.49460420000003,75.49460420000003,75.97686669999996,down,75.97695899999997,75.97700069999996,None,0.4026139999999714,None,,,,,,,,,,,,,002,001,2026-01-21_16h24.17.410,NESC3137_EEG_experiment,,2025.1.1,143.14650328877173,2026-01-21 16h24.39.611710 -0400,
46,0,46,None,None,,,,,46,0,46,0,75.98241539999992,,,,,,,,,,,,,,,,,,,,75.97722720000002,75.98241539999992,76.51977959999999,76.50452949999999,1,76.51761220000003,76.51977959999999,76.51977959999999,77.008284,None,77.00834129999998,77.00837209999997,None,,,,,,,,,,,,,,,002,001,2026-01-21_16h24.17.410,NESC3137_EEG_experiment,,2025.1.1,143.14650328877173,2026-01-21 16h24.39.611710 -0400,
47,0,47,down,None,0.3329295999999431,0.13571520000004966,,,47,0,47,0,77.01438239999993,,,,,,,,,,,,,,,,,,,,77.00854679999998,77.01438239999993,77.78854509999996,77.77162069999997,2,77.78483399999993,77.78854509999996,77.78854509999996,78.27619570000002,down,78.27624129999992,78.27625899999998,None,0.3329295999999431,0.13571520000004966,,,,,,,,,,,,,002,001,2026-01-21_16h24.17.410,NESC3137_EEG_experiment,,2025.1.1,143.14650328877173,2026-01-21 16h24.39.611710 -0400,
48,0,48,None,None,,,,,48,0,48,0,78.2847931,,,,,,,,,,,,,,,,,,,,78.27637359999994,78.2847931,78.81487709999999,78.79811729999994,2,78.81236249999995,78.81487709999999,78.81487709999999,79.30353149999996,None,79.30357479999998,79.30359279999993,None,,,,,,,,,,,,,,,002,001,2026-01-21_16h24.17.410,NESC3137_EEG_experiment,,2025.1.1,143.14650328877173,2026-01-21 16h24.39.611710 -0400,
49,0,49,up,None,0.34323429999994914,0.13586750000001757,,,49,0,49,0,79.31027559999995,,,,,,,,,,,,,,,,,,,,79.30371589999993,79.31027559999995,79.82624679999992,79.81132749999995,1,79.82428879999998,79.82624679999992,79.82624679999992,80.31615099999999,up,80.3161983,80.31621569999993,None,0.34323429999994914,0.13586750000001757,,,,,,,,,,,,,002,001,2026-01-21_16h24.17.410,NESC3137_EEG_experiment,,2025.1.1,143.14650328877173,2026-01-21 16h24.39.611710 -0400,
50,0,50,None,None,,,,,50,0,50,0,80.32206550000001,,,,,,,,,,,,,,,,,,,,80.31634680000002,80.32206550000001,81.18560059999993,81.16926189999992,1,81.18368339999995,81.18560059999993,81.18560059999993,81.67411479999998,None,81.67416409999998,81.67419540000003,None,,,,,,,,,,,,,,,002,001,2026-01-21_16h24.17.410,NESC3137_EEG_experiment,,2025.1.1,143.14650328877173,2026-01-21 16h24.39.611710 -0400,
51,0,51,down,None,0.35544210000000476,None,,,51,0,51,0,81.68074869999998,,,,,,,,,,,,,,,,,,,,81.6743659,81.68074869999998,82.19782050000003,82.18084739999995,2,82.19502260000002,82.19782050000003,82.19782050000003,82.68689429999995,down,82.68693999999994,82.68695660000003,None,0.35544210000000476,None,,,,,,,,,,,,,002,001,2026-01-21_16h24.17.410,NESC3137_EEG_experiment,,2025.1.1,143.14650328877173,2026-01-21 16h24.39.611710 -0400,
52,0,52,up,None,0.37221260000001166,None,,,52,0,52,0,82.69338259999995,,,,,,,,,,,,,,,,,,,,82.6870768,82.69338259999995,83.46100049999995,83.4452427,1,83.45811019999996,83.46100049999995,83.46100049999995,83.94911179999997,up,83.94915789999993,83.94917939999993,None,0.37221260000001166,None,,,,,,,,,,,,,002,001,2026-01-21_16h24.17.410,NESC3137_EEG_experiment,,2025.1.1,143.14650328877173,2026-01-21 16h24.39.611710 -0400,
53,0,53,None,None,,,,,53,0,53,0,83.9557648,,,,,,,,,,,,,,,,,,,,83.94929560000003,83.9557648,84.90431809999995,84.88659050000001,2,84.90212889999998,84.90431809999995,84.90431809999995,85.3929551,None,85.3930077,85.39304019999997,None,,,,,,,,,,,,,,,002,001,2026-01-21_16h24.17.410,NESC3137_EEG_experiment,,2025.1.1,143.14650328877173,2026-01-21 16h24.39.611710 -0400,
54,0,54,up,None,0.3782921999999189,None,,,54,0,54,0,85.39952579999999,,,,,,,,,,,,,,,,,,,,85.39322609999999,85.39952579999999,86.19896759999995,86.18591779999997,2,86.19716059999996,86.19896759999995,86.19896759999995,86.68614509999998,up,86.6862069,86.68623779999996,None,0.3782921999999189,None,,,,,,,,,,,,,002,001,2026-01-21_16h24.17.410,NESC3137_EEG_experiment,,2025.1.1,143.14650328877173,2026-01-21 16h24.39.611710 -0400,
55,0,55,up,None,0.46767190000002756,None,,,55,0,55,0,86.69275059999995,,,,,,,,,,,,,,,,,,,,86.68641170000001,86.69275059999995,87.58157519999997,87.5681998,1,87.57920909999996,87.58157519999997,87.58157519999997,88.07044810000002,up,88.07050719999995,88.07055119999995,None,0.46767190000002756,None,,,,,,,,,,,,,002,001,2026-01-21_16h24.17.410,NESC3137_EEG_experiment,,2025.1.1,143.14650328877173,2026-01-21 16h24.39.611710 -0400,
56,0,56,down,None,0.36383039999998346,None,,,56,0,56,0,88.07594699999993,,,,,,,,,,,,,,,,,,,,88.07067310000002,88.07594699999993,88.66938679999998,88.65317070000003,2,88.66618259999996,88.66938679999998,88.66938679999998,89.15730999999994,down,89.1573737,89.15740559999995,None,0.36383039999998346,None,,,,,,,,,,,,,002,001,2026-01-21_16h24.17.410,NESC3137_EEG_experiment,,2025.1.1,143.14650328877173,2026-01-21 16h24.39.611710 -0400,
57,0,57,up,None,0.4122744999999668,None,,,57,0,57,0,89.16403179999998,,,,,,,,,,,,,,,,,,,,89.15756499999998,89.16403179999998,90.02893929999993,90.01060269999994,2,90.02708669999993,90.02893929999993,90.02893929999993,90.51086369999996,up,90.51093229999992,90.51095850000002,None,0.4122744999999668,None,,,,,,,,,,,,,002,001,2026-01-21_16h24.17.410,NESC3137_EEG_experiment,,2025.1.1,143.14650328877173,2026-01-21 16h24.39.611710 -0400,
58,0,58,down,None,0.36464120000005096,None,,,58,0,58,0,90.51747019999993,,,,,,,,,,,,,,,,,,,,90.51110979999999,90.51747019999993,91.32459089999998,91.30977769999993,2,91.32256419999999,91.32459089999998,91.32459089999998,91.81188529999997,down,91.81192809999993,91.81194440000002,None,0.36464120000005096,None,,,,,,,,,,,,,002,001,2026-01-21_16h24.17.410,NESC3137_EEG_experiment,,2025.1.1,143.14650328877173,2026-01-21 16h24.39.611710 -0400,
59,0,59,up,None,0.4491967999999815,None,,,59,0,59,0,91.81842399999994,,,,,,,,,,,,,,,,,,,,91.81205879999993,91.81842399999994,92.35201759999995,92.33931519999999,1,92.34958169999993,92.35201759999995,92.35201759999995,92.84011980000002,up,92.84016489999999,92.84018200000003,None,0.4491967999999815,None,,,,,,,,,,,,,002,001,2026-01-21_16h24.17.410,NESC3137_EEG_experiment,,2025.1.1,143.14650328877173,2026-01-21 16h24.39.611710 -0400,
60,0,60,None,None,,,,,60,0,60,0,92.84636239999998,,,,,,,,,,,,,,,,,,,,92.84029899999996,92.84636239999998,93.40882620000002,93.39516619999995,2,93.40664129999993,93.40882620000002,93.40882620000002,93.8956144,None,93.89566719999993,93.89569789999996,None,,,,,,,,,,,,,,,002,001,2026-01-21_16h24.17.410,NESC3137_EEG_experiment,,2025.1.1,143.14650328877173,2026-01-21 16h24.39.611710 -0400,
61,0,61,up,None,0.3507346999999754,None,,,61,0,61,0,93.90301420000003,,,,,,,,,,,,,,,,,,,,93.8958189,93.90301420000003,94.61850140000001,94.60526559999994,1,94.61634029999993,94.61850140000001,94.61850140000001,95.10542009999995,up,95.10547079999992,95.10549819999994,None,0.3507346999999754,None,95.11211889999993,95.11211889999993,,,,,,,,,,,002,001,2026-01-21_16h24.17.410,NESC3137_EEG_experiment,,2025.1.1,143.14650328877173,2026-01-21 16h24.39.611710 -0400,
62,0,62,None,None,,,,,62,0,62,0,95.11211889999993,,,,,,,,,,,,,,,,,,,,95.1056582,95.11211889999993,95.87165970000001,95.85584029999995,2,95.86987019999992,95.87165970000001,95.87165970000001,96.36075870000002,None,96.36079749999999,96.36081579999995,None,,,,,,,,,,,,,,,002,001,2026-01-21_16h24.17.410,NESC3137_EEG_experiment,,2025.1.1,143.14650328877173,2026-01-21 16h24.39.611710 -0400,
63,0,63,up,None,0.47055760000000646,None,,,63,0,63,0,96.36730569999997,,,,,,,,,,,,,,,,,,,,96.36093440000002,96.36730569999997,97.09867750000001,97.08375479999995,1,97.09645820000003,97.09867750000001,97.09867750000001,97.58691969999995,up,97.58708999999999,97.58710840000003,None,0.47055760000000646,None,,,,,,,,,,,,,002,001,2026-01-21_16h24.17.410,NESC3137_EEG_experiment,,2025.1.1,143.14650328877173,2026-01-21 16h24.39.611710 -0400,
64,0,64,down,None,0.4628652000000102,None,,,64,0,64,0,97.59406260000003,,,,,,,,,,,,,,,,,,,,97.5872296,97.59406260000003,98.39434340000003,98.37818679999998,1,98.39230379999992,98.39434340000003,98.39434340000003,98.8825458,down,98.88260549999995,98.88263629999994,None,0.4628652000000102,None,,,,,,,,,,,,,002,001,2026-01-21_16h24.17.410,NESC3137_EEG_experiment,,2025.1.1,143.14650328877173,2026-01-21 16h24.39.611710 -0400,
65,0,65,down,None,0.4182529000000841,None,,,65,0,65,0,98.89031260000002,,,,,,,,,,,,,,,,,,,,98.88280439999994,98.89031260000002,99.71096009999997,99.6963955,2,99.7083907,99.71096009999997,99.71096009999997,100.19877199999996,down,100.19885160000001,100.19888519999995,None,0.4182529000000841,None,,,,,,,,,,,,,002,001,2026-01-21_16h24.17.410,NESC3137_EEG_experiment,,2025.1.1,143.14650328877173,2026-01-21 16h24.39.611710 -0400,
66,0,66,down,None,0.47085309999999936,None,,,66,0,66,0,100.20460989999992,,,,,,,,,,,,,,,,,,,,100.19909829999995,100.20460989999992,100.97044759999994,100.95530819999999,2,100.9687285,100.97044759999994,100.97044759999994,101.45932189999996,down,101.45936419999998,101.45938119999994,None,0.47085309999999936,None,,,,,,,,,,,,,002,001,2026-01-21_16h24.17.410,NESC3137_EEG_experiment,,2025.1.1,143.14650328877173,2026-01-21 16h24.39.611710 -0400,
67,0,67,up,None,0.4505409000000782,None,,,67,0,67,0,101.46597910000003,,,,,,,,,,,,,,,,,,,,101.45952850000003,101.46597910000003,102.31888329999992,102.30567969999993,1,102.31691509999996,102.31888329999992,102.31888329999992,102.80708040000002,up,102.80712649999998,102.80714379999995,None,0.4505409000000782,None,,,,,,,,,,,,,002,001,2026-01-21_16h24.17.410,NESC3137_EEG_experiment,,2025.1.1,143.14650328877173,2026-01-21 16h24.39.611710 -0400,
68,0,68,None,None,,,,,68,0,68,0,102.81368329999998,,,,,,,,,,,,,,,,,,,,102.80726279999999,102.81368329999998,103.46746769999993,103.45198849999997,2,103.4648985,103.46746769999993,103.46746769999993,103.95529199999999,None,103.95533030000001,103.95534799999996,None,,,,,,,,,,,,,,,002,001,2026-01-21_16h24.17.410,NESC3137_EEG_experiment,,2025.1.1,143.14650328877173,2026-01-21 16h24.39.611710 -0400,
69,0,69,down,None,0.35609439999996084,0.11148150000008172,,,69,0,69,0,103.96212919999994,,,,,,,,,,,,,,,,,,,,103.95546139999999,103.96212919999994,104.57371149999994,104.55341609999994,1,104.57198870000002,104.57371149999994,104.57371149999994,105.05414039999994,down,105.05418199999997,105.05419919999997,None,0.35609439999996084,0.11148150000008172,,,,,,,,,,,,,002,001,2026-01-21_16h24.17.410,NESC3137_EEG_experiment,,2025.1.1,143.14650328877173,2026-01-21 16h24.39.611710 -0400,
70,0,70,up,None,0.4264881000000287,None,,,70,0,70,0,105.06106729999999,,,,,,,,,,,,,,,,,,,,105.05430990000002,105.06106729999999,105.86307679999993,105.84555139999998,1,105.86094389999994,105.86307679999993,105.86307679999993,106.3512197,up,106.35129589999997,106.35133039999994,None,0.4264881000000287,None,,,,,,,,,,,,,002,001,2026-01-21_16h24.17.410,NESC3137_EEG_experiment,,2025.1.1,143.14650328877173,2026-01-21 16h24.39.611710 -0400,
71,0,71,down,None,0.3781612000000223,None,,,71,0,71,0,106.35844509999993,,,,,,,,,,,,,,,,,,,,106.35147749999999,106.35844509999993,107.16704549999997,107.15089409999996,2,107.1651885,107.16704549999997,107.16704549999997,107.65545259999999,down,107.65549699999997,107.65551370000003,None,0.3781612000000223,None,,,,,,,,,,,,,002,001,2026-01-21_16h24.17.410,NESC3137_EEG_experiment,,2025.1.1,143.14650328877173,2026-01-21 16h24.39.611710 -0400,
72,0,72,down,None,0.4219312999999829,None,,,72,0,72,0,107.66210130000002,,,,,,,,,,,,,,,,,,,,107.65563109999994,107.66210130000002,108.17144940000003,108.15604840000003,2,108.16859509999995,108.17144940000003,108.17144940000003,108.65952010000001,down,108.65956440000002,108.65958249999994,None,0.4219312999999829,None,,,,,,,,,,,,,002,001,2026-01-21_16h24.17.410,NESC3137_EEG_experiment,,2025.1.1,143.14650328877173,2026-01-21 16h24.39.611710 -0400,
73,0,73,down,None,0.4739819000000125,None,,,73,0,73,0,108.66547700000001,,,,,,,,,,,,,,,,,,,,108.65970029999994,108.66547700000001,109.32747069999994,109.31168230000003,2,109.32571109999992,109.32747069999994,109.32747069999994,109.8153906,down,109.81543260000001,109.81545029999995,None,0.4739819000000125,None,,,,,,,,,,,,,002,001,2026-01-21_16h24.17.410,NESC3137_EEG_experiment,,2025.1.1,143.14650328877173,2026-01-21 16h24.39.611710 -0400,
74,0,74,up,None,0.34630959999992683,None,,,74,0,74,0,109.82371499999999,,,,,,,,,,,,,,,,,,,,109.81555939999998,109.82371499999999,110.79898500000002,110.76027850000003,2,110.79644669999993,110.79898500000002,110.79898500000002,111.26055159999999,up,111.26059629999997,111.26061419999996,None,0.34630959999992683,None,,,,,,,,,,,,,002,001,2026-01-21_16h24.17.410,NESC3137_EEG_experiment,,2025.1.1,143.14650328877173,2026-01-21 16h24.39.611710 -0400,
75,0,75,down,None,0.4277043000000731,None,,,75,0,75,0,111.26823349999995,,,,,,,,,,,,,,,,,,,,111.26073020000001,111.26823349999995,111.80554710000001,111.78248940000003,2,111.80228420000003,111.80554710000001,111.80554710000001,112.28305079999996,down,112.28310750000003,112.28313919999994,None,0.4277043000000731,None,,,,,,,,,,,,,002,001,2026-01-21_16h24.17.410,NESC3137_EEG_experiment,,2025.1.1,143.14650328877173,2026-01-21 16h24.39.611710 -0400,
76,0,76,down,None,0.38539940000009665,None,,,76,0,76,0,112.28989719999993,,,,,,,,,,,,,,,,,,,,112.28330589999996,112.28989719999993,113.01588949999996,112.99173359999998,2,113.01211660000001,113.01588949999996,113.01588949999996,113.49358229999996,down,113.49362629999996,113.4936424,None,0.38539940000009665,None,,,,,,,,,,,,,002,001,2026-01-21_16h24.17.410,NESC3137_EEG_experiment,,2025.1.1,143.14650328877173,2026-01-21 16h24.39.611710 -0400,
77,0,77,up,None,0.3783102999999528,None,,,77,0,77,0,113.50084340000001,,,,,,,,,,,,,,,,,,,,113.49374669999997,113.50084340000001,114.31095779999998,114.27974419999998,1,114.30743699999994,114.31095779999998,114.31095779999998,114.78343069999994,up,114.78349000000003,114.78352050000001,None,0.3783102999999528,None,,,,,,,,,,,,,002,001,2026-01-21_16h24.17.410,NESC3137_EEG_experiment,,2025.1.1,143.14650328877173,2026-01-21 16h24.39.611710 -0400,
78,0,78,None,None,,,,,78,0,78,0,114.79018329999997,,,,,,,,,,,,,,,,,,,,114.78367070000002,114.79018329999997,115.42580090000001,115.38082810000003,1,115.42311510000002,115.42580090000001,115.42580090000001,115.88321629999996,None,115.8832691,115.88330180000003,None,,,,,,,,,,,,,,,002,001,2026-01-21_16h24.17.410,NESC3137_EEG_experiment,,2025.1.1,143.14650328877173,2026-01-21 16h24.39.611710 -0400,
79,0,79,None,None,,,,,79,0,79,0,115.88976019999996,,,,,,,,,,,,,,,,,,,,115.88348329999997,115.88976019999996,116.49297869999998,116.46015069999999,1,116.49052069999993,116.49297869999998,116.49297869999998,116.96487330000002,None,116.96495749999997,116.96497839999995,None,,,,,,,,,,,,,,,002,001,2026-01-21_16h24.17.410,NESC3137_EEG_experiment,,2025.1.1,143.14650328877173,2026-01-21 16h24.39.611710 -0400,
80,0,80,down,None,0.3475659999999152,None,,,80,0,80,0,116.97202830000003,,,,,,,,,,,,,,,,,,,,116.96514530000002,116.97202830000003,117.59792049999999,117.57611539999994,2,117.59557329999996,117.59792049999999,117.59792049999999,118.07800199999997,down,118.07806829999993,118.07808879999993,None,0.3475659999999152,None,,,,,,,,,,,,,002,001,2026-01-21_16h24.17.410,NESC3137_EEG_experiment,,2025.1.1,143.14650328877173,2026-01-21 16h24.39.611710 -0400,
81,0,81,up,None,0.4281502000000046,None,,,81,0,81,0,118.08386339999993,,,,,,,,,,,,,,,,,,,,118.07826669999997,118.08386339999993,118.69305989999998,118.66777139999999,1,118.68945739999992,118.69305989999998,118.69305989999998,119.17468199999996,up,119.17474059999995,119.17477069999995,None,0.4281502000000046,None,,,,,,,,,,,,,002,001,2026-01-21_16h24.17.410,NESC3137_EEG_experiment,,2025.1.1,143.14650328877173,2026-01-21 16h24.39.611710 -0400,
82,0,82,up,None,0.42868570000007367,None,,,82,0,82,0,119.18125829999997,,,,,,,,,,,,,,,,,,,,119.17494850000003,119.18125829999997,119.87652359999993,119.86312559999999,1,119.87470629999996,119.87652359999993,119.87652359999993,120.36358970000003,up,120.36364939999999,120.36367840000003,None,0.42868570000007367,None,,,,,,,,,,,,,002,001,2026-01-21_16h24.17.410,NESC3137_EEG_experiment,,2025.1.1,143.14650328877173,2026-01-21 16h24.39.611710 -0400,
83,0,83,down,None,0.3417621999999483,0.12753300000008494,,,83,0,83,0,120.3702839,,,,,,,,,,,,,,,,,,,,120.36384750000002,120.3702839,121.18789049999998,121.17033319999996,2,121.18480009999996,121.18789049999998,121.18789049999998,121.67531209999993,down,121.67536970000003,121.67540050000002,None,0.3417621999999483,0.12753300000008494,,,,,,,,,,,,,002,001,2026-01-21_16h24.17.410,NESC3137_EEG_experiment,,2025.1.1,143.14650328877173,2026-01-21 16h24.39.611710 -0400,
84,0,84,up,None,0.35601650000000973,0.12007189999997081,,,84,0,84,0,121.68351589999997,,,,,,,,,,,,,,,,,,,,121.67557469999997,121.68351589999997,122.5652986,122.55062939999993,2,122.56310469999994,122.5652986,122.5652986,123.05342389999998,up,123.05346799999995,123.05348939999999,None,0.35601650000000973,0.12007189999997081,,,,,,,,,,,,,002,001,2026-01-21_16h24.17.410,NESC3137_EEG_experiment,,2025.1.1,143.14650328877173,2026-01-21 16h24.39.611710 -0400,
85,0,85,up,None,0.36749190000000453,None,,,85,0,85,0,123.0595333,,,,,,,,,,,,,,,,,,,,123.05360199999996,123.0595333,123.90574370000002,123.89269179999997,1,123.90367449999997,123.90574370000002,123.90574370000002,124.39263919999996,up,124.39267210000003,124.39268659999993,None,0.36749190000000453,None,124.3996449,124.3996449,,,,,,,,,,,002,001,2026-01-21_16h24.17.410,NESC3137_EEG_experiment,,2025.1.1,143.14650328877173,2026-01-21 16h24.39.611710 -0400,
86,0,86,down,None,0.35121460000004845,None,,,86,0,86,0,124.3996449,,,,,,,,,,,,,,,,,,,,124.39279309999995,124.3996449,125.23411829999998,125.21959689999994,2,125.23228419999998,125.23411829999998,125.23411829999998,125.72163169999999,down,125.72169069999995,125.72172009999997,None,0.35121460000004845,None,,,,,,,,,,,,,002,001,2026-01-21_16h24.17.410,NESC3137_EEG_experiment,,2025.1.1,143.14650328877173,2026-01-21 16h24.39.611710 -0400,
87,0,87,down,None,0.40453930000001037,None,,,87,0,87,0,125.72830769999996,,,,,,,,,,,,,,,,,,,,125.72188229999995,125.72830769999996,126.37266199999999,126.35411909999993,2,126.3707756,126.37266199999999,126.37266199999999,126.85987639999996,down,126.8599183,126.85993469999994,None,0.40453930000001037,None,,,,,,,,,,,,,002,001,2026-01-21_16h24.17.410,NESC3137_EEG_experiment,,2025.1.1,143.14650328877173,2026-01-21 16h24.39.611710 -0400,
88,0,88,None,None,,,,,88,0,88,0,126.86702029999992,,,,,,,,,,,,,,,,,,,,126.86004459999992,126.86702029999992,127.46909559999995,127.45139789999996,2,127.46651489999999,127.46909559999995,127.46909559999995,127.95799290000002,None,127.95816389999993,127.95821519999993,None,,,,,,,,,,,,,,,002,001,2026-01-21_16h24.17.410,NESC3137_EEG_experiment,,2025.1.1,143.14650328877173,2026-01-21 16h24.39.611710 -0400,
89,0,89,down,None,0.4125287000000526,None,,,89,0,89,0,127.96360099999993,,,,,,,,,,,,,,,,,,,,127.95843549999995,127.96360099999993,128.66124530000002,128.64411199999995,2,128.65745189999996,128.66124530000002,128.66124530000002,129.14918190000003,down,129.14924969999993,129.14928599999996,None,0.4125287000000526,None,,,,,,,,,,,,,002,001,2026-01-21_16h24.17.410,NESC3137_EEG_experiment,,2025.1.1,143.14650328877173,2026-01-21 16h24.39.611710 -0400,
90,0,90,down,None,0.3421491999999944,0.13555889999997817,,,90,0,90,0,129.15602490000003,,,,,,,,,,,,,,,,,,,,129.14945360000002,129.15602490000003,130.1234869,130.10764029999996,2,130.12010899999996,130.1234869,130.1234869,130.6106711,down,130.610726,130.61075599999992,None,0.3421491999999944,0.13555889999997817,,,,,,,,,,,,,002,001,2026-01-21_16h24.17.410,NESC3137_EEG_experiment,,2025.1.1,143.14650328877173,2026-01-21 16h24.39.611710 -0400,
91,0,91,up,None,0.40419680000002245,None,,,91,0,91,0,130.61763559999997,,,,,,,,,,,,,,,,,,,,130.61091699999997,130.61763559999997,131.2370019,131.22214359999998,1,131.23349989999997,131.2370019,131.2370019,131.72356979999995,up,131.72361189999992,131.72362809999993,None,0.40419680000002245,None,,,,,,,,,,,,,002,001,2026-01-21_16h24.17.410,NESC3137_EEG_experiment,,2025.1.1,143.14650328877173,2026-01-21 16h24.39.611710 -0400,
92,0,92,up,None,0.4588721000000078,None,,,92,0,92,0,131.73083050000002,,,,,,,,,,,,,,,,,,,,131.7237381,131.73083050000002,132.37465799999995,132.35651899999993,1,132.3715783,132.37465799999995,132.37465799999995,132.8617719,up,132.86181299999998,132.86182899999994,None,0.4588721000000078,None,,,,,,,,,,,,,002,001,2026-01-21_16h24.17.410,NESC3137_EEG_experiment,,2025.1.1,143.14650328877173,2026-01-21 16h24.39.611710 -0400,
93,0,93,None,None,,,,,93,0,93,0,132.86972159999993,,,,,,,,,,,,,,,,,,,,132.86193779999996,132.86972159999993,133.38030219999996,133.36293639999997,1,133.37837089999994,133.38030219999996,133.38030219999996,133.8681815,None,133.86822859999995,133.86824560000002,None,,,,,,,,,,,,,,,002,001,2026-01-21_16h24.17.410,NESC3137_EEG_experiment,,2025.1.1,143.14650328877173,2026-01-21 16h24.39.611710 -0400,
94,0,94,down,None,0.4481212000000596,None,,,94,0,94,0,133.87545279999995,,,,,,,,,,,,,,,,,,,,133.86836059999996,133.87545279999995,134.84131030000003,134.82663419999994,2,134.8392672,134.84131030000003,134.84131030000003,135.32825189999994,down,135.32829449999997,135.32831079999994,None,0.4481212000000596,None,,,,,,,,,,,,,002,001,2026-01-21_16h24.17.410,NESC3137_EEG_experiment,,2025.1.1,143.14650328877173,2026-01-21 16h24.39.611710 -0400,
95,0,95,up,None,0.41915530000005674,None,,,95,0,95,0,135.33606369999995,,,,,,,,,,,,,,,,,,,,135.32842019999998,135.33606369999995,136.15051929999993,136.1342942,1,136.14846820000002,136.15051929999993,136.15051929999993,136.63977599999998,up,136.6398196,136.63983789999997,None,0.41915530000005674,None,,,,,,,,,,,,,002,001,2026-01-21_16h24.17.410,NESC3137_EEG_experiment,,2025.1.1,143.14650328877173,2026-01-21 16h24.39.611710 -0400,
96,0,96,None,None,,,,,96,0,96,0,136.64527399999997,,,,,,,,,,,,,,,,,,,,136.63995739999996,136.64527399999997,137.27966229999993,137.26371640000002,1,137.27790159999995,137.27966229999993,137.27966229999993,137.7681986,None,137.76836860000003,137.7684011,None,,,,,,,,,,,,,,,002,001,2026-01-21_16h24.17.410,NESC3137_EEG_experiment,,2025.1.1,143.14650328877173,2026-01-21 16h24.39.611710 -0400,
97,0,97,down,None,0.3733296999999993,None,,,97,0,97,0,137.77519510000002,,,,,,,,,,,,,,,,,,,,137.76864669999998,137.77519510000002,138.30788239999993,138.28926949999993,2,138.3051061,138.30788239999993,138.30788239999993,138.7954198,down,138.79547990000003,138.79551089999995,None,0.3733296999999993,None,,,,,,,,,,,,,002,001,2026-01-21_16h24.17.410,NESC3137_EEG_experiment,,2025.1.1,143.14650328877173,2026-01-21 16h24.39.611710 -0400,
98,0,98,up,None,0.3703548999999384,None,,,98,0,98,0,138.80192079999995,,,,,,,,,,,,,,,,,,,,138.79565519999994,138.80192079999995,139.47092499999997,139.45502349999992,1,139.46866909999994,139.47092499999997,139.47092499999997,139.96051279999995,up,139.96067879999998,139.96071429999995,None,0.3703548999999384,None,,,,,,,,,,,,,002,001,2026-01-21_16h24.17.410,NESC3137_EEG_experiment,,2025.1.1,143.14650328877173,2026-01-21 16h24.39.611710 -0400,
99,0,99,None,None,,,,,99,0,99,0,139.9665751,,,,,,,,,,,,,,,,,,,,139.96095359999993,139.9665751,140.9576991,140.9382422,1,140.95563389999995,140.9576991,140.9576991,141.43846359999998,None,141.43851429999995,141.43854379999993,None,,,,,,,,,,,,,,,002,001,2026-01-21_16h24.17.410,NESC3137_EEG_experiment,,2025.1.1,143.14650328877173,2026-01-21 16h24.39.611710 -0400,
100,0,100,up,None,0.45019619999993665,None,,,100,0,100,0,141.44506509999997,,,,,,,,,,,,,,,,,,,,141.4387067,141.44506509999997,142.11103319999995,142.0981309,1,142.1088737,142.11103319999995,142.11103319999995,142.6007095,up,142.6008015,142.60083709999992,None,0.45019619999993665,None,,,,,,,,,,,,,002,001,2026-01-21_16h24.17.410,NESC3137_EEG_experiment,,2025.1.1,143.14650328877173,2026-01-21 16h24.39.611710 -0400,
101,0,101,down,None,0.41437069999994947,None,,,101,0,101,0,142.60513830000002,,,,,,,,,,,,,,,,,,,,142.60102589999997,142.60513830000002,143.1871284,143.16802339999992,2,143.18422420000002,143.1871284,143.1871284,143.6693573,down,143.669404,143.66942259999996,None,0.41437069999994947,None,,,,,,,,,,,,,002,001,2026-01-21_16h24.17.410,NESC3137_EEG_experiment,,2025.1.1,143.14650328877173,2026-01-21 16h24.39.611710 -0400,
102,0,102,up,None,0.3348673999998937,0.12803140000005442,,,102,0,102,0,143.67422609999994,,,,,,,,,,,,,,,,,,,,143.66954509999994,143.67422609999994,144.4183359,144.4038312,1,144.41658359999997,144.4183359,144.4183359,144.9065117,up,144.90655589999994,144.90657379999993,None,0.3348673999998937,0.12803140000005442,,,,,,,,,,,,,002,001,2026-01-21_16h24.17.410,NESC3137_EEG_experiment,,2025.1.1,143.14650328877173,2026-01-21 16h24.39.611710 -0400,
103,0,103,down,None,0.4035087999999405,None,,,103,0,103,0,144.91311539999992,,,,,,,,,,,,,,,,,,,,144.90669200000002,144.91311539999992,145.4141611,145.39900119999993,2,145.41028340000003,145.4141611,145.4141611,145.90058439999996,down,145.9006273,145.90064369999993,None,0.4035087999999405,None,,,,,,,,,,,,,002,001,2026-01-21_16h24.17.410,NESC3137_EEG_experiment,,2025.1.1,143.14650328877173,2026-01-21 16h24.39.611710 -0400,
104,0,104,down,None,0.39280939999991915,None,,,104,0,104,0,145.90873,,,,,,,,,,,,,,,,,,,,145.90075619999993,145.90873,146.87250389999997,146.85985959999994,2,146.8702819,146.87250389999997,146.87250389999997,147.3611032,down,147.36114880000002,147.36116570000002,None,0.39280939999991915,None,,,,,,,,,,,,,002,001,2026-01-21_16h24.17.410,NESC3137_EEG_experiment,,2025.1.1,143.14650328877173,2026-01-21 16h24.39.611710 -0400,
105,0,105,None,None,,,,,105,0,105,0,147.36625530000003,,,,,,,,,,,,,,,,,,,,147.36128209999993,147.36625530000003,147.94216199999994,147.92942570000002,2,147.94001129999992,147.94216199999994,147.94216199999994,148.42941169999995,None,148.4294516,148.42947749999996,None,,,148.43602450000003,148.43602450000003,,,,,,,,,,,002,001,2026-01-21_16h24.17.410,NESC3137_EEG_experiment,,2025.1.1,143.14650328877173,2026-01-21 16h24.39.611710 -0400,
106,0,106,up,None,0.358027600000014,None,,,106,0,106,0,148.43602450000003,,,,,,,,,,,,,,,,,,,,148.42964499999994,148.43602450000003,149.43523019999998,149.42312159999994,1,149.43339500000002,149.43523019999998,149.43523019999998,149.92250609999996,up,149.92254019999996,149.92255490000002,None,0.358027600000014,None,149.92931709999993,149.92931709999993,,,,,,,,,,,002,001,2026-01-21_16h24.17.410,NESC3137_EEG_experiment,,2025.1.1,143.14650328877173,2026-01-21 16h24.39.611710 -0400,
107,0,107,down,None,0.4788128999999799,None,,,107,0,107,0,149.92931709999993,,,,,,,,,,,,,,,,,,,,149.92267349999997,149.92931709999993,150.83451730000002,150.81849109999996,2,150.83224569999993,150.83451730000002,150.83451730000002,151.3237004,down,151.32374919999995,151.32376920000002,None,0.4788128999999799,None,,,,,,,,,,,,,002,001,2026-01-21_16h24.17.410,NESC3137_EEG_experiment,,2025.1.1,143.14650328877173,2026-01-21 16h24.39.611710 -0400,
108,0,108,down,None,0.3582865999999285,None,,,108,0,108,0,151.33010809999996,,,,,,,,,,,,,,,,,,,,151.32389249999994,151.33010809999996,152.22692199999995,152.2113915,2,152.22492899999997,152.22692199999995,152.22692199999995,152.71596119999992,down,152.71600739999997,152.71602489999998,None,0.3582865999999285,None,,,,,,,,,,,,,002,001,2026-01-21_16h24.17.410,NESC3137_EEG_experiment,,2025.1.1,143.14650328877173,2026-01-21 16h24.39.611710 -0400,
109,0,109,down,None,0.3676480999999967,None,,,109,0,109,0,152.72225100000003,,,,,,,,,,,,,,,,,,,,152.7161479,152.72225100000003,153.401698,153.38846719999992,1,153.3990457,153.401698,153.401698,153.8886278,down,153.88867759999994,153.88869869999996,None,0.3676480999999967,None,,,,,,,,,,,,,002,001,2026-01-21_16h24.17.410,NESC3137_EEG_experiment,,2025.1.1,143.14650328877173,2026-01-21 16h24.39.611710 -0400,
110,0,110,up,None,0.4051606000000447,None,,,110,0,110,0,153.89539379999997,,,,,,,,,,,,,,,,,,,,153.88882769999998,153.89539379999997,154.64469810000003,154.63202279999996,1,154.64269760000002,154.64469810000003,154.64469810000003,155.1337307,up,155.13377879999996,155.13379659999998,None,0.4051606000000447,None,,,,,,,,,,,,,002,001,2026-01-21_16h24.17.410,NESC3137_EEG_experiment,,2025.1.1,143.14650328877173,2026-01-21 16h24.39.611710 -0400,
111,0,111,up,None,0.41476399999999103,None,,,111,0,111,0,155.13862970000002,,,,,,,,,,,,,,,,,,,,155.13394329999994,155.13862970000002,155.8104515,155.79187760000002,1,155.8078147,155.8104515,155.8104515,156.29988249999997,up,156.29996459999995,156.30001140000002,None,0.41476399999999103,None,,,,,,,,,,,,,002,001,2026-01-21_16h24.17.410,NESC3137_EEG_experiment,,2025.1.1,143.14650328877173,2026-01-21 16h24.39.611710 -0400,
112,0,112,up,None,0.45262430000002496,None,,,112,0,112,0,156.30508989999998,,,,,,,,,,,,,,,,,,,,156.30018929999994,156.30508989999998,157.21286009999994,157.19493139999997,1,157.20957369999996,157.21286009999994,157.21286009999994,157.7008793,up,157.70092899999997,157.70094659999995,None,0.45262430000002496,None,,,,,,,,,,,,,002,001,2026-01-21_16h24.17.410,NESC3137_EEG_experiment,,2025.1.1,143.14650328877173,2026-01-21 16h24.39.611710 -0400,
113,0,113,down,None,0.4150104000000283,None,,,113,0,113,0,157.70797229999994,,,,,,,,,,,,,,,,,,,,157.70106729999998,157.70797229999994,158.586185,158.56966339999997,2,158.58432670000002,158.586185,158.586185,159.07429790000003,down,159.07435750000002,159.07438739999998,None,0.4150104000000283,None,,,,,,,,,,,,,002,001,2026-01-21_16h24.17.410,NESC3137_EEG_experiment,,2025.1.1,143.14650328877173,2026-01-21 16h24.39.611710 -0400,
114,0,114,down,None,0.44561239999995905,None,,,114,0,114,0,159.08094589999996,,,,,,,,,,,,,,,,,,,,159.07452739999997,159.08094589999996,160.05198919999998,160.03417260000003,2,160.05027629999995,160.05198919999998,160.05198919999998,160.5392475,down,160.53929189999997,160.53930860000003,None,0.44561239999995905,None,,,,,,,,,,,,,002,001,2026-01-21_16h24.17.410,NESC3137_EEG_experiment,,2025.1.1,143.14650328877173,2026-01-21 16h24.39.611710 -0400,
115,0,115,up,None,0.4468802000000096,None,,,115,0,115,0,160.54738639999994,,,,,,,,,,,,,,,,,,,,160.5394146,160.54738639999994,161.28237260000003,161.26229560000002,2,161.28028540000003,161.28237260000003,161.28237260000003,161.76377349999996,up,161.76393999999993,161.76397699999995,None,0.4468802000000096,None,,,,,,,,,,,,,002,001,2026-01-21_16h24.17.410,NESC3137_EEG_experiment,,2025.1.1,143.14650328877173,2026-01-21 16h24.39.611710 -0400,
116,0,116,up,None,0.37815389999991567,None,,,116,0,116,0,161.76974380000001,,,,,,,,,,,,,,,,,,,,161.76430029999995,161.76974380000001,162.7510684,162.73485559999995,1,162.74784950000003,162.7510684,162.7510684,163.2396251,up,163.23966769999993,163.23968449999995,None,0.37815389999991567,None,,,,,,,,,,,,,002,001,2026-01-21_16h24.17.410,NESC3137_EEG_experiment,,2025.1.1,143.14650328877173,2026-01-21 16h24.39.611710 -0400,
117,0,117,up,None,0.4139766000000691,None,,,117,0,117,0,163.2470048,,,,,,,,,,,,,,,,,,,,163.23980359999996,163.2470048,164.0192323,164.00295169999993,1,164.01555729999995,164.0192323,164.0192323,164.5077139,up,164.50777289999996,164.50780229999998,None,0.4139766000000691,None,,,,,,,,,,,,,002,001,2026-01-21_16h24.17.410,NESC3137_EEG_experiment,,2025.1.1,143.14650328877173,2026-01-21 16h24.39.611710 -0400,
118,0,118,None,None,,,,,118,0,118,0,164.51406280000003,,,,,,,,,,,,,,,,,,,,164.507972,164.51406280000003,165.10720919999994,165.0909712,2,165.1042225,165.10720919999994,165.10720919999994,165.59646729999997,None,165.59657329999993,165.5965959,None,,,,,,,,,,,,,,,002,001,2026-01-21_16h24.17.410,NESC3137_EEG_experiment,,2025.1.1,143.14650328877173,2026-01-21 16h24.39.611710 -0400,
119,0,119,down,None,0.46059309999998277,None,,,119,0,119,0,165.6024734,,,,,,,,,,,,,,,,,,,,165.59678569999994,165.6024734,166.35670370000003,166.33928349999996,2,166.35462559999996,166.35670370000003,166.35670370000003,166.84436879999998,down,166.84443550000003,166.84446719999994,None,0.46059309999998277,None,,,,,,,,,,,,,002,001,2026-01-21_16h24.17.410,NESC3137_EEG_experiment,,2025.1.1,143.14650328877173,2026-01-21 16h24.39.611710 -0400,
120,0,120,up,None,0.4318868000000293,None,,,120,0,120,0,166.85171089999994,,,,,,,,,,,,,,,,,,,,166.84463889999995,166.85171089999994,167.74560259999998,167.72660299999995,1,167.74231009999994,167.74560259999998,167.74560259999998,168.23284289999992,up,168.23290179999992,168.23292159999994,None,0.4318868000000293,None,,,,,,,,,,,,,002,001,2026-01-21_16h24.17.410,NESC3137_EEG_experiment,,2025.1.1,143.14650328877173,2026-01-21 16h24.39.611710 -0400,
121,0,121,up,None,0.37180399999999736,None,,,121,0,121,0,168.23970079999992,,,,,,,,,,,,,,,,,,,,168.23302990000002,168.23970079999992,169.037424,169.0190334,1,169.0340963,169.037424,169.037424,169.52449849999994,up,169.52456089999998,169.5245956,None,0.37180399999999736,None,,,,,,,,,,,,,002,001,2026-01-21_16h24.17.410,NESC3137_EEG_experiment,,2025.1.1,143.14650328877173,2026-01-21 16h24.39.611710 -0400,
122,0,122,down,None,0.3735345000000052,None,,,122,0,122,0,169.532193,,,,,,,,,,,,,,,,,,,,169.52476560000002,169.532193,170.07579799999996,170.05971549999992,2,170.0740948,170.07579799999996,170.07579799999996,170.56465200000002,down,170.56469459999994,170.56471120000003,None,0.3735345000000052,None,,,,,,,,,,,,,002,001,2026-01-21_16h24.17.410,NESC3137_EEG_experiment,,2025.1.1,143.14650328877173,2026-01-21 16h24.39.611710 -0400,
123,0,123,None,None,,,,,123,0,123,0,170.57113919999995,,,,,,,,,,,,,,,,,,,,170.56483760000003,170.57113919999995,171.1646571,171.14111519999994,2,171.16221640000003,171.1646571,171.1646571,171.64428680000003,None,171.6443263,171.64434440000002,None,,,,,,,,,,,,,,,002,001,2026-01-21_16h24.17.410,NESC3137_EEG_experiment,,2025.1.1,143.14650328877173,2026-01-21 16h24.39.611710 -0400,
124,0,124,down,None,0.41952019999996537,None,,,124,0,124,0,171.65014369999994,,,,,,,,,,,,,,,,,,,,171.64447280000002,171.65014369999994,172.6378714,172.62273319999997,2,172.63595229999999,172.6378714,172.6378714,173.1262984,down,173.1263414,173.1263583,None,0.41952019999996537,None,,,,,,,,,,,,,002,001,2026-01-21_16h24.17.410,NESC3137_EEG_experiment,,2025.1.1,143.14650328877173,2026-01-21 16h24.39.611710 -0400,
125,0,125,down,None,0.4432980999999927,None,,,125,0,125,0,173.13389089999998,,,,,,,,,,,,,,,,,,,,173.12647189999996,173.13389089999998,173.78189769999994,173.76488269999993,2,173.777829,173.78189769999994,173.78189769999994,174.27025860000003,down,174.27033419999998,174.27035469999998,None,0.4432980999999927,None,,,,,,,,,,,,,002,001,2026-01-21_16h24.17.410,NESC3137_EEG_experiment,,2025.1.1,143.14650328877173,2026-01-21 16h24.39.611710 -0400,
126,0,126,None,None,,,,,126,0,126,0,174.27596770000002,,,,,,,,,,,,,,,,,,,,174.27047429999993,174.27596770000002,175.11008919999995,175.0956933,1,175.10833949999994,175.11008919999995,175.11008919999995,175.5985071,None,175.5985693,175.59859099999994,None,,,,,,,,,,,,,,,002,001,2026-01-21_16h24.17.410,NESC3137_EEG_experiment,,2025.1.1,143.14650328877173,2026-01-21 16h24.39.611710 -0400,
127,0,127,down,None,0.463070400000106,None,,,127,0,127,0,175.60474309999995,,,,,,,,,,,,,,,,,,,,175.5989816,175.60474309999995,176.56214509999995,176.55008769999995,2,176.5603142,176.56214509999995,176.56214509999995,177.05042400000002,down,177.05047479999996,177.05050010000002,None,0.463070400000106,None,,,,,,,,,,,,,002,001,2026-01-21_16h24.17.410,NESC3137_EEG_experiment,,2025.1.1,143.14650328877173,2026-01-21 16h24.39.611710 -0400,
128,0,128,down,None,0.46825169999999616,None,,,128,0,128,0,177.05696390000003,,,,,,,,,,,,,,,,,,,,177.0506775,177.05696390000003,177.82091919999993,177.80627749999996,2,177.81862460000002,177.82091919999993,177.82091919999993,178.30863929999998,down,178.30868769999995,178.3087048,None,0.46825169999999616,None,,,,,,,,,,,,,002,001,2026-01-21_16h24.17.410,NESC3137_EEG_experiment,,2025.1.1,143.14650328877173,2026-01-21 16h24.39.611710 -0400,
129,0,129,None,None,,,,,129,0,129,0,178.3143172,,,,,,,,,,,,,,,,,,,,178.30882680000002,178.3143172,179.18276170000001,179.16878280000003,2,179.18088219999993,179.18276170000001,179.18276170000001,179.67120149999994,None,179.67132419999996,179.67134599999997,None,,,,,,,,,,,,,,,002,001,2026-01-21_16h24.17.410,NESC3137_EEG_experiment,,2025.1.1,143.14650328877173,2026-01-21 16h24.39.611710 -0400,
130,0,130,down,None,0.47471410000002834,None,,,130,0,130,0,179.67704279999998,,,,,,,,,,,,,,,,,,,,179.6715471,179.67704279999998,180.35847890000002,180.34443909999993,2,180.35576709999998,180.35847890000002,180.35847890000002,180.8453637,down,180.84542269999997,180.84543940000003,None,0.47471410000002834,None,,,,,,,,,,,,,002,001,2026-01-21_16h24.17.410,NESC3137_EEG_experiment,,2025.1.1,143.14650328877173,2026-01-21 16h24.39.611710 -0400,
131,0,131,down,None,0.44730119999996987,None,,,131,0,131,0,180.85199119999993,,,,,,,,,,,,,,,,,,,,180.84556480000003,180.85199119999993,181.55435169999998,181.54025749999994,2,181.55256399999996,181.55435169999998,181.55435169999998,182.0414717,down,182.04151560000003,182.04153229999997,None,0.44730119999996987,None,,,,,,,,,,,,,002,001,2026-01-21_16h24.17.410,NESC3137_EEG_experiment,,2025.1.1,143.14650328877173,2026-01-21 16h24.39.611710 -0400,
132,0,132,None,None,,,,,132,0,132,0,182.04863089999992,,,,,,,,,,,,,,,,,,,,182.04164609999998,182.04863089999992,182.90413049999995,182.88947689999998,2,182.90203969999993,182.90413049999995,182.90413049999995,183.39130469999998,None,183.39135879999992,183.39138860000003,None,,,,,,,,,,,,,,,002,001,2026-01-21_16h24.17.410,NESC3137_EEG_experiment,,2025.1.1,143.14650328877173,2026-01-21 16h24.39.611710 -0400,
133,0,133,down,None,0.3818687000000409,None,,,133,0,133,0,183.39835789999995,,,,,,,,,,,,,,,,,,,,183.39153249999993,183.39835789999995,184.33144329999993,184.31569560000003,2,184.32959199999993,184.33144329999993,184.33144329999993,184.81458929999997,down,184.81462509999994,184.81464019999999,None,0.3818687000000409,None,184.81967559999998,184.81967559999998,,,,,,,,,,,002,001,2026-01-21_16h24.17.410,NESC3137_EEG_experiment,,2025.1.1,143.14650328877173,2026-01-21 16h24.39.611710 -0400,
134,0,134,down,None,0.4241332000000284,None,,,134,0,134,0,184.81967559999998,,,,,,,,,,,,,,,,,,,,184.81476339999995,184.81967559999998,185.64923339999996,185.63348380000002,2,185.6472261,185.64923339999996,185.64923339999996,186.13762369999995,down,186.1376785,186.13769509999997,None,0.4241332000000284,None,,,,,,,,,,,,,002,001,2026-01-21_16h24.17.410,NESC3137_EEG_experiment,,2025.1.1,143.14650328877173,2026-01-21 16h24.39.611710 -0400,
135,0,135,down,None,0.3062901000000693,0.15199889999996685,,,135,0,135,0,186.14528289999998,,,,,,,,,,,,,,,,,,,,186.1378247,186.14528289999998,186.78296219999993,186.76321589999998,2,186.77990979999993,186.78296219999993,186.78296219999993,187.26941969999996,down,187.26946020000003,187.26947640000003,None,0.3062901000000693,0.15199889999996685,,,,,,,,,,,,,002,001,2026-01-21_16h24.17.410,NESC3137_EEG_experiment,,2025.1.1,143.14650328877173,2026-01-21 16h24.39.611710 -0400,
136,0,136,up,None,0.3206213000000844,0.13596380000001318,,,136,0,136,0,187.27622859999997,,,,,,,,,,,,,,,,,,,,187.2695883,187.27622859999997,188.18468399999995,188.16561919999992,1,188.18272089999994,188.18468399999995,188.18468399999995,188.67214009999998,up,188.6722009,188.67223160000003,None,0.3206213000000844,0.13596380000001318,,,,,,,,,,,,,002,001,2026-01-21_16h24.17.410,NESC3137_EEG_experiment,,2025.1.1,143.14650328877173,2026-01-21 16h24.39.611710 -0400,
137,0,137,down,None,0.3578655000000026,None,,,137,0,137,0,188.67902319999996,,,,,,,,,,,,,,,,,,,,188.6723991,188.67902319999996,189.57138369999996,189.55466160000003,2,189.56898679999995,189.57138369999996,189.57138369999996,190.05430139999999,down,190.05435690000002,190.05438270000002,None,0.3578655000000026,None,190.05956349999997,190.05956349999997,,,,,,,,,,,002,001,2026-01-21_16h24.17.410,NESC3137_EEG_experiment,,2025.1.1,143.14650328877173,2026-01-21 16h24.39.611710 -0400,
138,0,138,up,None,0.3383096000000023,None,,,138,0,138,0,190.05956349999997,,,,,,,,,,,,,,,,,,,,190.05449650000003,190.05956349999997,190.70293600000002,190.68516699999998,1,190.69996659999993,190.70293600000002,190.70293600000002,191.19138399999997,up,191.19147880000003,191.19151599999998,None,0.3383096000000023,None,,,,,,,,,,,,,002,001,2026-01-21_16h24.17.410,NESC3137_EEG_experiment,,2025.1.1,143.14650328877173,2026-01-21 16h24.39.611710 -0400,
139,0,139,down,None,0.3231102000000874,None,,,139,0,139,0,191.19819889999997,,,,,,,,,,,,,,,,,,,,191.1917959,191.19819889999997,191.92610330000002,191.91322300000002,1,191.92374210000003,191.92610330000002,191.92610330000002,192.4143808,down,192.41442410000002,192.4144453,None,0.3231102000000874,None,,,,,,,,,,,,,002,001,2026-01-21_16h24.17.410,NESC3137_EEG_experiment,,2025.1.1,143.14650328877173,2026-01-21 16h24.39.611710 -0400,
140,0,140,down,None,0.4306706000000986,None,,,140,0,140,0,192.42105070000002,,,,,,,,,,,,,,,,,,,,192.41456589999996,192.42105070000002,193.1865735,193.17013710000003,2,193.18453169999998,193.1865735,193.1865735,193.67470319999995,down,193.67476079999994,193.67479049999997,None,0.4306706000000986,None,,,,,,,,,,,,,002,001,2026-01-21_16h24.17.410,NESC3137_EEG_experiment,,2025.1.1,143.14650328877173,2026-01-21 16h24.39.611710 -0400,
141,0,141,up,None,0.4613626000000295,None,,,141,0,141,0,193.68138149999993,,,,,,,,,,,,,,,,,,,,193.67495369999995,193.68138149999993,194.21190130000002,194.1954624,1,194.2088447,194.21190130000002,194.21190130000002,194.69940339999994,up,194.69946349999998,194.69949450000001,None,0.4613626000000295,None,,,,,,,,,,,,,002,001,2026-01-21_16h24.17.410,NESC3137_EEG_experiment,,2025.1.1,143.14650328877173,2026-01-21 16h24.39.611710 -0400,
142,0,142,up,None,0.34888439999997445,None,,,142,0,142,0,194.7062045,,,,,,,,,,,,,,,,,,,,194.69967039999995,194.7062045,195.34044140000003,195.32643280000002,1,195.33841159999997,195.34044140000003,195.34044140000003,195.82828629999995,up,195.8283321,195.8283513,None,0.34888439999997445,None,,,,,,,,,,,,,002,001,2026-01-21_16h24.17.410,NESC3137_EEG_experiment,,2025.1.1,143.14650328877173,2026-01-21 16h24.39.611710 -0400,
143,0,143,down,None,0.36531939999997576,None,,,143,0,143,0,195.83390609999992,,,,,,,,,,,,,,,,,,,,195.82847219999996,195.83390609999992,196.59594900000002,196.57733699999994,2,196.59219699999994,196.59594900000002,196.59594900000002,197.08396289999996,down,197.08402339999998,197.0840571,None,0.36531939999997576,None,,,,,,,,,,,,,002,001,2026-01-21_16h24.17.410,NESC3137_EEG_experiment,,2025.1.1,143.14650328877173,2026-01-21 16h24.39.611710 -0400,
144,0,144,up,None,0.4802584000000252,None,,,144,0,144,0,197.09027719999995,,,,,,,,,,,,,,,,,,,,197.08423499999992,197.09027719999995,197.71317839999995,197.69587879999995,1,197.7100769,197.71317839999995,197.71317839999995,198.20060769999998,up,198.20066710000003,198.20069719999992,None,0.4802584000000252,None,,,,,,,,,,,,,002,001,2026-01-21_16h24.17.410,NESC3137_EEG_experiment,,2025.1.1,143.14650328877173,2026-01-21 16h24.39.611710 -0400,
145,0,145,down,None,0.4118611999999757,None,,,145,0,145,0,198.2074447,,,,,,,,,,,,,,,,,,,,198.2008624,198.2074447,199.13336529999992,199.11833289999993,1,199.13110369999993,199.13336529999992,199.13336529999992,199.62047529999995,down,199.62052010000002,199.62053689999993,None,0.4118611999999757,None,,,,,,,,,,,,,002,001,2026-01-21_16h24.17.410,NESC3137_EEG_experiment,,2025.1.1,143.14650328877173,2026-01-21 16h24.39.611710 -0400,
146,0,146,up,None,0.3152648999999883,None,,,146,0,146,0,199.62775739999995,,,,,,,,,,,,,,,,,,,,199.62066119999997,199.62775739999995,200.4219369,200.40639839999994,1,200.41876749999994,200.4219369,200.4219369,200.91094780000003,up,200.91118129999995,200.91121669999995,None,0.3152648999999883,None,,,,,,,,,,,,,002,001,2026-01-21_16h24.17.410,NESC3137_EEG_experiment,,2025.1.1,143.14650328877173,2026-01-21 16h24.39.611710 -0400,
147,0,147,up,None,0.28630939999993643,0.1599288999999544,,,147,0,147,0,200.91768000000002,,,,,,,,,,,,,,,,,,,,200.91150679999998,200.91768000000002,201.65110329999993,201.63224749999995,1,201.64895769999998,201.65110329999993,201.65110329999993,202.13898959999995,up,202.13903289999996,202.13905009999996,None,0.28630939999993643,0.1599288999999544,,,,,,,,,,,,,002,001,2026-01-21_16h24.17.410,NESC3137_EEG_experiment,,2025.1.1,143.14650328877173,2026-01-21 16h24.39.611710 -0400,
148,0,148,up,None,0.3194366999999829,0.15979990000005273,,,148,0,148,0,202.14652549999994,,,,,,,,,,,,,,,,,,,,202.13916410000002,202.14652549999994,202.99404800000002,202.98058889999993,1,202.9917828,202.99404800000002,202.99404800000002,203.48092369999995,up,203.48096609999993,203.4809828,None,0.3194366999999829,0.15979990000005273,,,,,,,,,,,,,002,001,2026-01-21_16h24.17.410,NESC3137_EEG_experiment,,2025.1.1,143.14650328877173,2026-01-21 16h24.39.611710 -0400,
149,0,149,down,None,0.41945559999999205,None,,,149,0,149,0,203.48812569999996,,,,,,,,,,,,,,,,,,,,203.48109679999993,203.48812569999996,204.44576699999993,204.43345750000003,2,204.44382039999994,204.44576699999993,204.44576699999993,204.93405840000003,down,204.93422899999996,204.93434130000003,None,0.41945559999999205,None,,,,,,,,,,,,,002,001,2026-01-21_16h24.17.410,NESC3137_EEG_experiment,,2025.1.1,143.14650328877173,2026-01-21 16h24.39.611710 -0400,
150,0,150,up,None,0.41376370000000406,None,,,150,0,150,0,204.94013529999995,,,,,,,,,,,,,,,,,,,,204.93460779999998,204.94013529999995,205.60344009999994,205.58579529999997,1,205.60020339999994,205.60344009999994,205.60344009999994,206.09298490000003,up,206.093032,206.09305949999998,None,0.41376370000000406,None,,,,,,,,,,,,,002,001,2026-01-21_16h24.17.410,NESC3137_EEG_experiment,,2025.1.1,143.14650328877173,2026-01-21 16h24.39.611710 -0400,
151,0,151,down,None,0.39630010000007587,None,,,151,0,151,0,206.0984906,,,,,,,,,,,,,,,,,,,,206.09317959999998,206.0984906,206.8611247,206.84899210000003,1,206.85910160000003,206.8611247,206.8611247,207.34870130000002,down,207.3487371,207.34875850000003,None,0.39630010000007587,None,207.35547050000002,207.35547050000002,,,,,,,,,,,002,001,2026-01-21_16h24.17.410,NESC3137_EEG_experiment,,2025.1.1,143.14650328877173,2026-01-21 16h24.39.611710 -0400,
152,0,152,None,None,,,,,152,0,152,0,207.35547050000002,,,,,,,,,,,,,,,,,,,,207.34888649999994,207.35547050000002,207.98721079999996,207.97385299999996,2,207.98542759999998,207.98721079999996,207.98721079999996,208.47533039999996,None,208.47536949999994,208.47538769999994,None,,,,,,,,,,,,,,,002,001,2026-01-21_16h24.17.410,NESC3137_EEG_experiment,,2025.1.1,143.14650328877173,2026-01-21 16h24.39.611710 -0400,
153,0,153,up,None,0.3770286000000169,None,,,153,0,153,0,208.48116219999997,,,,,,,,,,,,,,,,,,,,208.47556469999995,208.48116219999997,209.32821519999993,209.31453149999993,1,209.32613200000003,209.32821519999993,209.32821519999993,209.81589439999993,up,209.81594499999994,209.8159637,None,0.3770286000000169,None,,,,,,,,,,,,,002,001,2026-01-21_16h24.17.410,NESC3137_EEG_experiment,,2025.1.1,143.14650328877173,2026-01-21 16h24.39.611710 -0400,
154,0,154,up,None,0.3331577000000152,0.11196609999990415,,,154,0,154,0,209.82217819999994,,,,,,,,,,,,,,,,,,,,209.81609259999993,209.82217819999994,210.36415769999996,210.34985840000002,1,210.36199469999997,210.36415769999996,210.36415769999996,210.85076979999997,up,210.8508144,210.85083179999992,None,0.3331577000000152,0.11196609999990415,,,,,,,,,,,,,002,001,2026-01-21_16h24.17.410,NESC3137_EEG_experiment,,2025.1.1,143.14650328877173,2026-01-21 16h24.39.611710 -0400,
155,0,155,up,None,0.3212310000000116,0.14473049999992327,,,155,0,155,0,210.8586404,,,,,,,,,,,,,,,,,,,,210.85095009999998,210.8586404,211.83196369999996,211.81728369999996,1,211.8300382,211.83196369999996,211.83196369999996,212.31923729999994,up,212.3192997,212.3193308,None,0.3212310000000116,0.14473049999992327,,,,,,,,,,,,,002,001,2026-01-21_16h24.17.410,NESC3137_EEG_experiment,,2025.1.1,143.14650328877173,2026-01-21 16h24.39.611710 -0400,
156,0,156,up,None,0.30722549999995863,0.14387520000002496,,,156,0,156,0,212.32658659999993,,,,,,,,,,,,,,,,,,,,212.31950859999995,212.32658659999993,212.926103,212.90938859999994,1,212.92422139999996,212.926103,212.926103,213.4146637,up,213.41473410000003,213.41475509999998,None,0.30722549999995863,0.14387520000002496,,,,,,,,,,,,,002,001,2026-01-21_16h24.17.410,NESC3137_EEG_experiment,,2025.1.1,143.14650328877173,2026-01-21 16h24.39.611710 -0400,
157,0,157,up,None,0.30651509999995596,0.12007819999996627,,,157,0,157,0,213.4218667,,,,,,,,,,,,,,,,,,,,213.41489939999997,213.4218667,213.99069380000003,213.97814499999993,1,213.98880839999993,213.99069380000003,213.99069380000003,214.47769489999996,up,214.4777289,214.4777474,None,0.30651509999995596,0.12007819999996627,214.48500979999994,214.48500979999994,,,,,,,,,,,002,001,2026-01-21_16h24.17.410,NESC3137_EEG_experiment,,2025.1.1,143.14650328877173,2026-01-21 16h24.39.611710 -0400,
158,0,158,up,None,0.3637041000000636,None,,,158,0,158,0,214.48500979999994,,,,,,,,,,,,,,,,,,,,214.47785039999997,214.48500979999994,215.20564089999993,215.19306159999996,1,215.20285189999993,215.20564089999993,215.20564089999993,215.69324540000002,up,215.6932944,215.69331060000002,None,0.3637041000000636,None,215.69983639999998,215.69983639999998,,,,,,,,,,,002,001,2026-01-21_16h24.17.410,NESC3137_EEG_experiment,,2025.1.1,143.14650328877173,2026-01-21 16h24.39.611710 -0400,
159,0,159,down,None,0.3704591000000619,None,,,159,0,159,0,215.69983639999998,,,,,,,,,,,,,,,,,,,,215.69381529999998,215.69983639999998,216.5028092,216.48511209999992,2,216.49991739999996,216.5028092,216.5028092,216.99183719999996,down,216.99188099999992,216.99189739999997,None,0.3704591000000619,None,,,,,,,,,,,,,002,001,2026-01-21_16h24.17.410,NESC3137_EEG_experiment,,2025.1.1,143.14650328877173,2026-01-21 16h24.39.611710 -0400,
160,0,160,up,None,0.38815090000002783,None,,,160,0,160,0,216.99811999999997,,,,,,,,,,,,,,,,,,,,216.99201119999998,216.99811999999997,217.77323809999996,217.7549977,1,217.77028699999994,217.77323809999996,217.77323809999996,218.25552289999996,up,218.25571530000002,218.2557412,None,0.38815090000002783,None,,,,,,,,,,,,,002,001,2026-01-21_16h24.17.410,NESC3137_EEG_experiment,,2025.1.1,143.14650328877173,2026-01-21 16h24.39.611710 -0400,
161,0,161,down,None,0.360104500000034,None,,,161,0,161,0,218.26168569999993,,,,,,,,,,,,,,,,,,,,218.2560873,218.26168569999993,219.20919479999998,219.19194959999993,2,219.20563419999996,219.20919479999998,219.20919479999998,219.69776149999996,down,219.6978027,219.6978206,None,0.360104500000034,None,,,,,,,,,,,,,002,001,2026-01-21_16h24.17.410,NESC3137_EEG_experiment,,2025.1.1,143.14650328877173,2026-01-21 16h24.39.611710 -0400,
162,0,162,up,None,0.4117764000000079,None,,,162,0,162,0,219.70540159999996,,,,,,,,,,,,,,,,,,,,219.69793019999997,219.70540159999996,220.4376936,220.4201494,1,220.43505719999996,220.4376936,220.4376936,220.9260984,up,220.92614229999992,220.92615879999994,None,0.4117764000000079,None,,,,,,,,,,,,,002,001,2026-01-21_16h24.17.410,NESC3137_EEG_experiment,,2025.1.1,143.14650328877173,2026-01-21 16h24.39.611710 -0400,
163,0,163,up,None,0.4253127999999151,None,,,163,0,163,0,220.93295109999997,,,,,,,,,,,,,,,,,,,,220.92627149999998,220.93295109999997,221.64013699999998,221.62088229999995,1,221.63731210000003,221.64013699999998,221.64013699999998,222.12718299999995,up,222.12722669999994,222.12724909999997,None,0.4253127999999151,None,,,,,,,,,,,,,002,001,2026-01-21_16h24.17.410,NESC3137_EEG_experiment,,2025.1.1,143.14650328877173,2026-01-21 16h24.39.611710 -0400,
164,0,164,up,None,0.31120420000002014,0.12809219999996913,,,164,0,164,0,222.13532429999998,,,,,,,,,,,,,,,,,,,,222.1273658,222.13532429999998,223.13002749999998,223.1145917,2,223.12779249999994,223.13002749999998,223.13002749999998,223.61866039999995,up,223.61872729999993,223.61876499999994,None,0.31120420000002014,0.12809219999996913,,,,,,,,,,,,,002,001,2026-01-21_16h24.17.410,NESC3137_EEG_experiment,,2025.1.1,143.14650328877173,2026-01-21 16h24.39.611710 -0400,
165,0,165,down,None,0.3679176999999072,None,,,165,0,165,0,223.6260168,,,,,,,,,,,,,,,,,,,,223.6189806,223.6260168,224.3853577,224.36824779999995,2,224.38196979999998,224.3853577,224.3853577,224.87330869999994,down,224.8733532,224.8733697,None,0.3679176999999072,None,,,,,,,,,,,,,002,001,2026-01-21_16h24.17.410,NESC3137_EEG_experiment,,2025.1.1,143.14650328877173,2026-01-21 16h24.39.611710 -0400,
166,0,166,down,None,0.4639878000000408,None,,,166,0,166,0,224.8802402,,,,,,,,,,,,,,,,,,,,224.87348480000003,224.8802402,225.59334709999996,225.57555389999993,2,225.59091160000003,225.59334709999996,225.59334709999996,226.08095919999994,down,226.08101549999992,226.08104600000001,None,0.4639878000000408,None,,,,,,,,,,,,,002,001,2026-01-21_16h24.17.410,NESC3137_EEG_experiment,,2025.1.1,143.14650328877173,2026-01-21 16h24.39.611710 -0400,
167,0,167,up,None,0.43727799999999206,None,,,167,0,167,0,226.0880403,,,,,,,,,,,,,,,,,,,,226.08121140000003,226.0880403,226.82811129999993,226.81098539999994,1,226.82620250000002,226.82811129999993,226.82811129999993,227.31752310000002,up,227.31758709999997,227.3176042,None,0.43727799999999206,None,,,,,,,,,,,,,002,001,2026-01-21_16h24.17.410,NESC3137_EEG_experiment,,2025.1.1,143.14650328877173,2026-01-21 16h24.39.611710 -0400,
168,0,168,up,None,0.40892810000002555,None,,,168,0,168,0,227.3229933,,,,,,,,,,,,,,,,,,,,227.31772149999995,227.3229933,228.2163395,228.19826209999997,1,228.2129377,228.2163395,228.2163395,228.70551179999995,up,228.7056291,228.70565079999994,None,0.40892810000002555,None,,,,,,,,,,,,,002,001,2026-01-21_16h24.17.410,NESC3137_EEG_experiment,,2025.1.1,143.14650328877173,2026-01-21 16h24.39.611710 -0400,
169,0,169,up,None,0.4710316000000603,None,,,169,0,169,0,228.71178279999992,,,,,,,,,,,,,,,,,,,,228.70588369999996,228.71178279999992,229.65827049999996,229.64191619999997,1,229.6557282,229.65827049999996,229.65827049999996,230.14751079999996,up,230.14757569999995,230.14759709999998,None,0.4710316000000603,None,,,,,,,,,,,,,002,001,2026-01-21_16h24.17.410,NESC3137_EEG_experiment,,2025.1.1,143.14650328877173,2026-01-21 16h24.39.611710 -0400,
170,0,170,None,None,,,,,170,0,170,0,230.15331089999995,,,,,,,,,,,,,,,,,,,,230.147739,230.15331089999995,230.68308130000003,230.66723819999993,2,230.68100600000002,230.68308130000003,230.68308130000003,231.17124419999993,None,231.17129479999994,231.1713254,None,,,,,,,,,,,,,,,002,001,2026-01-21_16h24.17.410,NESC3137_EEG_experiment,,2025.1.1,143.14650328877173,2026-01-21 16h24.39.611710 -0400,
171,0,171,None,None,,,,,171,0,171,0,231.17795030000002,,,,,,,,,,,,,,,,,,,,231.1714882,231.17795030000002,231.87601340000003,231.85885059999998,2,231.87264459999994,231.87601340000003,231.87601340000003,232.36558660000003,None,232.36578139999995,232.3658368,None,,,,,,,,,,,,,,,002,001,2026-01-21_16h24.17.410,NESC3137_EEG_experiment,,2025.1.1,143.14650328877173,2026-01-21 16h24.39.611710 -0400,
172,0,172,down,None,0.47916650000001937,None,,,172,0,172,0,232.3718136,,,,,,,,,,,,,,,,,,,,232.36612530000002,232.3718136,233.0261822,233.00974109999993,2,233.02312169999993,233.0261822,233.0261822,233.5140841,down,233.5141691,233.5142019,None,0.47916650000001937,None,,,,,,,,,,,,,002,001,2026-01-21_16h24.17.410,NESC3137_EEG_experiment,,2025.1.1,143.14650328877173,2026-01-21 16h24.39.611710 -0400,
173,0,173,up,None,0.439598100000012,None,,,173,0,173,0,233.5208937,,,,,,,,,,,,,,,,,,,,233.51443410000002,233.5208937,234.10564149999993,234.09043280000003,1,234.10386329999994,234.10564149999993,234.10564149999993,234.59460519999993,up,234.59464960000003,234.59466659999998,None,0.439598100000012,None,,,,,,,,,,,,,002,001,2026-01-21_16h24.17.410,NESC3137_EEG_experiment,,2025.1.1,143.14650328877173,2026-01-21 16h24.39.611710 -0400,
174,0,174,down,None,0.4393539000000146,None,,,174,0,174,0,234.6004163,,,,,,,,,,,,,,,,,,,,234.59478979999994,234.6004163,235.13795700000003,235.1213159,2,235.13528469999994,235.13795700000003,235.13795700000003,235.6261862,down,235.62626339999997,235.6262971,None,0.4393539000000146,None,,,,,,,,,,,,,002,001,2026-01-21_16h24.17.410,NESC3137_EEG_experiment,,2025.1.1,143.14650328877173,2026-01-21 16h24.39.611710 -0400,
175,0,175,down,None,0.35722150000003694,None,,,175,0,175,0,235.63363749999996,,,,,,,,,,,,,,,,,,,,235.6264992,235.63363749999996,236.57206029999998,236.55686100000003,2,236.56816479999998,236.57206029999998,236.57206029999998,237.05840209999997,down,237.058445,237.05846209999993,None,0.35722150000003694,None,,,,,,,,,,,,,002,001,2026-01-21_16h24.17.410,NESC3137_EEG_experiment,,2025.1.1,143.14650328877173,2026-01-21 16h24.39.611710 -0400,
176,0,176,None,None,,,,,176,0,176,0,237.0663763,,,,,,,,,,,,,,,,,,,,237.05858139999998,237.0663763,237.75605610000002,237.73903729999995,2,237.7530991,237.75605610000002,237.75605610000002,238.24530459999994,None,238.2453693,238.24539159999995,None,,,,,,,,,,,,,,,002,001,2026-01-21_16h24.17.410,NESC3137_EEG_experiment,,2025.1.1,143.14650328877173,2026-01-21 16h24.39.611710 -0400,
177,0,177,down,None,0.42669839999996384,None,,,177,0,177,0,238.25108849999992,,,,,,,,,,,,,,,,,,,,238.2455675,238.25108849999992,239.01452540000003,239.00203209999995,2,239.01260689999992,239.01452540000003,239.01452540000003,239.50155110000003,down,239.5015853,239.50159910000002,None,0.42669839999996384,None,239.50898870000003,239.50898870000003,,,,,,,,,,,002,001,2026-01-21_16h24.17.410,NESC3137_EEG_experiment,,2025.1.1,143.14650328877173,2026-01-21 16h24.39.611710 -0400,
178,0,178,down,None,0.37278070000002117,None,,,178,0,178,0,239.50898870000003,,,,,,,,,,,,,,,,,,,,239.50170500000002,239.50898870000003,240.23661370000002,240.22392849999994,2,240.23446439999998,240.23661370000002,240.23661370000002,240.7240362,down,240.72407239999995,240.72408740000003,None,0.37278070000002117,None,240.73085149999997,240.73085149999997,,,,,,,,,,,002,001,2026-01-21_16h24.17.410,NESC3137_EEG_experiment,,2025.1.1,143.14650328877173,2026-01-21 16h24.39.611710 -0400,
179,0,179,down,None,0.3260887000000139,0.11204229999998461,,,179,0,179,0,240.73085149999997,,,,,,,,,,,,,,,,,,,,240.72419579999996,240.73085149999997,241.61921039999993,241.60624180000002,2,241.6173662,241.61921039999993,241.61921039999993,242.1071382,down,242.10720919999994,242.10723029999997,None,0.3260887000000139,0.11204229999998461,,,,,,,,,,,,,002,001,2026-01-21_16h24.17.410,NESC3137_EEG_experiment,,2025.1.1,143.14650328877173,2026-01-21 16h24.39.611710 -0400,
180,0,180,None,None,,,,,180,0,180,0,242.1133456,,,,,,,,,,,,,,,,,,,,242.10738349999997,242.1133456,242.72346419999997,242.7104498,1,242.72163809999995,242.72346419999997,242.72346419999997,243.2111645,None,243.2112052,243.21122189999994,None,,,,,,,,,,,,,,,002,001,2026-01-21_16h24.17.410,NESC3137_EEG_experiment,,2025.1.1,143.14650328877173,2026-01-21 16h24.39.611710 -0400,
181,0,181,down,None,0.3990718999999672,None,,,181,0,181,0,243.21746489999998,,,,,,,,,,,,,,,,,,,,243.2113375,243.21746489999998,244.0662026,244.0517853,2,244.06400969999993,244.0662026,244.0662026,244.55375649999996,down,244.5538014,244.55382269999996,None,0.3990718999999672,None,,,,,,,,,,,,,002,001,2026-01-21_16h24.17.410,NESC3137_EEG_experiment,,2025.1.1,143.14650328877173,2026-01-21 16h24.39.611710 -0400,
182,0,182,up,None,0.4732417999999825,None,,,182,0,182,0,244.5603185,,,,,,,,,,,,,,,,,,,,244.5539361,244.5603185,245.13625389999993,245.12307550000003,1,245.13447080000003,245.13625389999993,245.13625389999993,245.62340770000003,up,245.62346749999995,245.62349699999993,None,0.4732417999999825,None,,,,,,,,,,,,,002,001,2026-01-21_16h24.17.410,NESC3137_EEG_experiment,,2025.1.1,143.14650328877173,2026-01-21 16h24.39.611710 -0400,
183,0,183,None,None,,,,,183,0,183,0,245.63001020000002,,,,,,,,,,,,,,,,,,,,245.62366889999998,245.63001020000002,246.30647009999996,246.29139079999993,1,246.30482940000002,246.30647009999996,246.30647009999996,246.79558079999993,None,246.79561920000003,246.79563610000002,None,,,,,,,,,,,,,,,002,001,2026-01-21_16h24.17.410,NESC3137_EEG_experiment,,2025.1.1,143.14650328877173,2026-01-21 16h24.39.611710 -0400,
184,0,184,down,None,0.3901204000000007,None,,,184,0,184,0,246.80169719999992,,,,,,,,,,,,,,,,,,,,246.79575649999992,246.80169719999992,247.72357509999995,247.70453120000002,2,247.7198737,247.72357509999995,247.72357509999995,248.20593239999994,down,248.20613089999995,248.2061526,None,0.3901204000000007,None,,,,,,,,,,,,,002,001,2026-01-21_16h24.17.410,NESC3137_EEG_experiment,,2025.1.1,143.14650328877173,2026-01-21 16h24.39.611710 -0400,
185,0,185,None,None,,,,,185,0,185,0,248.21181669999999,,,,,,,,,,,,,,,,,,,,248.2063339,248.21181669999999,248.80335279999997,248.78851439999994,1,248.80040839999992,248.80335279999997,248.80335279999997,249.2899612,None,249.28999929999998,249.29001529999994,None,,,,,,,,,,,,,,,002,001,2026-01-21_16h24.17.410,NESC3137_EEG_experiment,,2025.1.1,143.14650328877173,2026-01-21 16h24.39.611710 -0400,
186,0,186,down,None,0.44597699999997076,None,,,186,0,186,0,249.29785809999998,,,,,,,,,,,,,,,,,,,,249.29012149999994,249.29785809999998,250.28350690000002,250.2552875,1,250.27932309999994,250.28350690000002,250.28350690000002,250.75950419999992,down,250.75958379999997,250.7596188,None,0.44597699999997076,None,,,,,,,,,,,,,002,001,2026-01-21_16h24.17.410,NESC3137_EEG_experiment,,2025.1.1,143.14650328877173,2026-01-21 16h24.39.611710 -0400,
187,0,187,down,None,0.420426300000031,None,,,187,0,187,0,250.76512679999996,,,,,,,,,,,,,,,,,,,,250.75979610000002,250.76512679999996,251.63681009999993,251.6200298,2,251.63327029999994,251.63681009999993,251.63681009999993,252.1259735,down,252.12615549999998,252.1261789,None,0.420426300000031,None,,,,,,,,,,,,,002,001,2026-01-21_16h24.17.410,NESC3137_EEG_experiment,,2025.1.1,143.14650328877173,2026-01-21 16h24.39.611710 -0400,
188,0,188,down,None,0.40017420000003767,None,,,188,0,188,0,252.13250819999996,,,,,,,,,,,,,,,,,,,,252.1264321,252.13250819999996,252.96096090000003,252.9446249,2,252.9571866,252.96096090000003,252.96096090000003,253.44813509999994,down,253.44817690000002,253.44819369999993,None,0.40017420000003767,None,,,,,,,,,,,,,002,001,2026-01-21_16h24.17.410,NESC3137_EEG_experiment,,2025.1.1,143.14650328877173,2026-01-21 16h24.39.611710 -0400,
189,0,189,down,None,0.36543430000006083,None,,,189,0,189,0,253.45635149999998,,,,,,,,,,,,,,,,,,,,253.44830430000002,253.45635149999998,254.41181259999996,254.39319319999993,2,254.4086433,254.41181259999996,254.41181259999996,254.8938971,down,254.89394500000003,254.89396449999992,None,0.36543430000006083,None,,,,,,,,,,,,,002,001,2026-01-21_16h24.17.410,NESC3137_EEG_experiment,,2025.1.1,143.14650328877173,2026-01-21 16h24.39.611710 -0400,
190,0,190,down,None,0.3544892999999547,None,,,190,0,190,0,254.89946369999996,,,,,,,,,,,,,,,,,,,,254.89415989999998,254.89946369999996,255.74275090000003,255.72706319999998,2,255.74065459999997,255.74275090000003,255.74275090000003,256.2322498,down,256.2323503,256.2323989,None,0.3544892999999547,None,,,,,,,,,,,,,002,001,2026-01-21_16h24.17.410,NESC3137_EEG_experiment,,2025.1.1,143.14650328877173,2026-01-21 16h24.39.611710 -0400,
191,0,191,down,None,0.4443011999999271,None,,,191,0,191,0,256.239014,,,,,,,,,,,,,,,,,,,,256.23262839999995,256.239014,257.0129309,256.9964629,2,257.0104443,257.0129309,257.0129309,257.50084289999995,down,257.5008845,257.50090079999995,None,0.4443011999999271,None,,,,,,,,,,,,,002,001,2026-01-21_16h24.17.410,NESC3137_EEG_experiment,,2025.1.1,143.14650328877173,2026-01-21 16h24.39.611710 -0400,
192,0,192,down,None,0.42115960000000996,None,,,192,0,192,0,257.5087065,,,,,,,,,,,,,,,,,,,,257.5010182,257.5087065,258.4201081,258.40407749999997,2,258.41829269999994,258.4201081,258.4201081,258.9101343,down,258.9101797999999,258.91019789999996,None,0.42115960000000996,None,,,,,,,,,,,,,002,001,2026-01-21_16h24.17.410,NESC3137_EEG_experiment,,2025.1.1,143.14650328877173,2026-01-21 16h24.39.611710 -0400,
193,0,193,up,None,0.4046041999999943,None,,,193,0,193,0,258.91515889999994,,,,,,,,,,,,,,,,,,,,258.91032429999996,258.91515889999994,259.5566754,259.5406021,1,259.5534076,259.5566754,259.5566754,260.04546359999995,up,260.0455429,260.045574,None,0.4046041999999943,None,,,,,,,,,,,,,002,001,2026-01-21_16h24.17.410,NESC3137_EEG_experiment,,2025.1.1,143.14650328877173,2026-01-21 16h24.39.611710 -0400,
194,0,194,up,None,0.479187599999932,None,,,194,0,194,0,260.05264320000003,,,,,,,,,,,,,,,,,,,,260.04575079999995,260.05264320000003,260.7701023999999,260.7539729,1,260.7665420999999,260.7701023999999,260.7701023999999,261.2579253,up,261.257974,261.2579912,None,0.479187599999932,None,,,,,,,,,,,,,002,001,2026-01-21_16h24.17.410,NESC3137_EEG_experiment,,2025.1.1,143.14650328877173,2026-01-21 16h24.39.611710 -0400,
195,0,195,up,None,0.4473707000000786,None,,,195,0,195,0,261.26614770000003,,,,,,,,,,,,,,,,,,,,261.25810409999997,261.26614770000003,261.90582989999996,261.8902726,1,261.90320269999995,261.90582989999996,261.90582989999996,262.39460369999995,up,262.3946982,262.39475229999994,None,0.4473707000000786,None,,,,,,,,,,,,,002,001,2026-01-21_16h24.17.410,NESC3137_EEG_experiment,,2025.1.1,143.14650328877173,2026-01-21 16h24.39.611710 -0400,
196,0,196,down,None,0.4300088999999616,None,,,196,0,196,0,262.40031409999995,,,,,,,,,,,,,,,,,,,,262.39514280000003,262.40031409999995,263.08323069999994,263.0681933999999,2,263.08126429999993,263.08323069999994,263.08323069999994,263.5659423999999,down,263.5660063,263.56603499999994,None,0.4300088999999616,None,263.5713022,263.5713022,,,,,,,,,,,002,001,2026-01-21_16h24.17.410,NESC3137_EEG_experiment,,2025.1.1,143.14650328877173,2026-01-21 16h24.39.611710 -0400,
197,0,197,down,None,0.4231671000000006,None,,,197,0,197,0,263.5713022,,,,,,,,,,,,,,,,,,,,263.5662138,263.5713022,264.54612109999994,264.53049269999997,2,264.5435457,264.54612109999994,264.54612109999994,265.0347694999999,down,265.0348503,265.0348772,None,0.4231671000000006,None,,,,,,,,,,,,,002,001,2026-01-21_16h24.17.410,NESC3137_EEG_experiment,,2025.1.1,143.14650328877173,2026-01-21 16h24.39.611710 -0400,
198,0,198,up,None,0.47944749999999203,None,,,198,0,198,0,265.04086399999994,,,,,,,,,,,,,,,,,,,,265.03511289999994,265.04086399999994,265.80987159999995,265.7909685999999,1,265.8081194,265.80987159999995,265.80987159999995,266.2975907,up,266.29763389999994,266.29765069999996,None,0.47944749999999203,None,,,,,,,,,,,,,002,001,2026-01-21_16h24.17.410,NESC3137_EEG_experiment,,2025.1.1,143.14650328877173,2026-01-21 16h24.39.611710 -0400,
199,0,199,down,None,0.40597509999997783,None,,,199,0,199,0,266.30444709999995,,,,,,,,,,,,,,,,,,,,266.29777690000003,266.30444709999995,266.88355409999997,266.8685223,2,266.8807418,266.88355409999997,266.88355409999997,267.3713199,down,267.3713659,267.37138359999994,None,0.40597509999997783,None,,,,,,,,,,,,,002,001,2026-01-21_16h24.17.410,NESC3137_EEG_experiment,,2025.1.1,143.14650328877173,2026-01-21 16h24.39.611710 -0400,
200,0,200,up,space,0.3316798999999264,0.12788160000002335,2.9660949999999957,None,200,0,200,0,267.3770693,,,,,,,,,,,,,,,,,,,,267.3715191,267.3770693,267.989782,267.97465539999996,1,267.9873477,267.989782,267.989782,268.47652489999996,up,268.4765867,301.44102339999995,space,0.3316798999999264,0.12788160000002335,,,268.4838654,298.4671489,298.4671489,298.47378549999996,2.9660949999999957,None,,,,,002,001,2026-01-21_16h24.17.410,NESC3137_EEG_experiment,,2025.1.1,143.14650328877173,2026-01-21 16h24.39.611710 -0400,
201,0,201,up,None,0.35692919999996775,None,,,201,0,201,0,301.445698,,,,,,,,,,,,,,,,,,,,301.4411484,301.445698,302.1163719,302.0999111,1,302.11431949999997,302.1163719,302.1163719,302.6058012,up,302.60584759999995,302.6058679,None,0.35692919999996775,None,,,,,,,,,,,,,002,001,2026-01-21_16h24.17.410,NESC3137_EEG_experiment,,2025.1.1,143.14650328877173,2026-01-21 16h24.39.611710 -0400,
202,0,202,down,None,0.4000237999999854,None,,,202,0,202,0,302.61209969999993,,,,,,,,,,,,,,,,,,,,302.6060304,302.61209969999993,303.3692191,303.35473189999993,2,303.36698909999996,303.3692191,303.3692191,303.85762149999994,down,303.85774029999993,303.8577781,None,0.4000237999999854,None,,,,,,,,,,,,,002,001,2026-01-21_16h24.17.410,NESC3137_EEG_experiment,,2025.1.1,143.14650328877173,2026-01-21 16h24.39.611710 -0400,
203,0,203,up,None,0.4210478999999623,None,,,203,0,203,0,303.8637917,,,,,,,,,,,,,,,,,,,,303.85797589999993,303.8637917,304.6922258999999,304.6757705,1,304.68842729999994,304.6922258999999,304.6922258999999,305.1796323,up,305.179675,305.1796916999999,None,0.4210478999999623,None,,,,,,,,,,,,,002,001,2026-01-21_16h24.17.410,NESC3137_EEG_experiment,,2025.1.1,143.14650328877173,2026-01-21 16h24.39.611710 -0400,
204,0,204,down,None,0.4221709999999348,None,,,204,0,204,0,305.1874222,,,,,,,,,,,,,,,,,,,,305.1798026,305.1874222,305.73910019999994,305.7214345,2,305.73658439999997,305.73910019999994,305.73910019999994,306.2216175,down,306.2217088,306.22173399999997,None,0.4221709999999348,None,,,,,,,,,,,,,002,001,2026-01-21_16h24.17.410,NESC3137_EEG_experiment,,2025.1.1,143.14650328877173,2026-01-21 16h24.39.611710 -0400,
205,0,205,up,None,0.3681757999999036,None,,,205,0,205,0,306.2273005999999,,,,,,,,,,,,,,,,,,,,306.22189259999993,306.2273005999999,307.0730691,307.0470485999999,1,307.07032919999995,307.0730691,307.0730691,307.54910829999994,up,307.5491789,307.54919899999993,None,0.3681757999999036,None,,,,,,,,,,,,,002,001,2026-01-21_16h24.17.410,NESC3137_EEG_experiment,,2025.1.1,143.14650328877173,2026-01-21 16h24.39.611710 -0400,
206,0,206,down,None,0.396756499999924,None,,,206,0,206,0,307.55502679999995,,,,,,,,,,,,,,,,,,,,307.5493749,307.55502679999995,308.2933289,308.27739269999995,2,308.2894976,308.2933289,308.2933289,308.7816735,down,308.7817605,308.78179549999993,None,0.396756499999924,None,,,,,,,,,,,,,002,001,2026-01-21_16h24.17.410,NESC3137_EEG_experiment,,2025.1.1,143.14650328877173,2026-01-21 16h24.39.611710 -0400,
207,0,207,down,None,0.31659349999995356,0.15228080000008504,,,207,0,207,0,308.7872274,,,,,,,,,,,,,,,,,,,,308.7819892,308.7872274,309.6447097,309.6285778,2,309.6430298,309.6447097,309.6447097,310.13419379999993,down,310.1342389,310.13425659999996,None,0.31659349999995356,0.15228080000008504,,,,,,,,,,,,,002,001,2026-01-21_16h24.17.410,NESC3137_EEG_experiment,,2025.1.1,143.14650328877173,2026-01-21 16h24.39.611710 -0400,
208,0,208,down,None,0.36999100000002727,None,,,208,0,208,0,310.1410417999999,,,,,,,,,,,,,,,,,,,,310.13437379999993,310.1410417999999,310.99194179999995,310.9737726999999,2,310.98967930000003,310.99194179999995,310.99194179999995,311.48024139999995,down,311.48029669999994,311.4803148,None,0.36999100000002727,None,,,,,,,,,,,,,002,001,2026-01-21_16h24.17.410,NESC3137_EEG_experiment,,2025.1.1,143.14650328877173,2026-01-21 16h24.39.611710 -0400,
209,0,209,up,None,0.4644743000000062,None,,,209,0,209,0,311.487115,,,,,,,,,,,,,,,,,,,,311.4804448,311.487115,312.3368272,312.3204921,1,312.3341855,312.3368272,312.3368272,312.82665539999994,up,312.8267145,312.826738,None,0.4644743000000062,None,,,,,,,,,,,,,002,001,2026-01-21_16h24.17.410,NESC3137_EEG_experiment,,2025.1.1,143.14650328877173,2026-01-21 16h24.39.611710 -0400,
210,0,210,up,None,0.39418269999998756,None,,,210,0,210,0,312.83228299999996,,,,,,,,,,,,,,,,,,,,312.8268964,312.83228299999996,313.3751477999999,313.359772,1,313.3734515,313.3751477999999,313.3751477999999,313.86444629999994,up,313.86456999999996,313.8645951,None,0.39418269999998756,None,,,,,,,,,,,,,002,001,2026-01-21_16h24.17.410,NESC3137_EEG_experiment,,2025.1.1,143.14650328877173,2026-01-21 16h24.39.611710 -0400,
211,0,211,None,None,,,,,211,0,211,0,313.86983499999997,,,,,,,,,,,,,,,,,,,,313.8648087,313.86983499999997,314.7199121,314.70411249999995,1,314.7180743,314.7199121,314.7199121,315.20860029999994,None,315.2086432,315.20866060000003,None,,,,,,,,,,,,,,,002,001,2026-01-21_16h24.17.410,NESC3137_EEG_experiment,,2025.1.1,143.14650328877173,2026-01-21 16h24.39.611710 -0400,
212,0,212,down,None,0.3513413999999102,None,,,212,0,212,0,315.2147801,,,,,,,,,,,,,,,,,,,,315.2087745,315.2147801,315.99391330000003,315.97905359999993,2,315.99165270000003,315.99391330000003,315.99391330000003,316.4823238,down,316.4824012,316.48243419999994,None,0.3513413999999102,None,,,,,,,,,,,,,002,001,2026-01-21_16h24.17.410,NESC3137_EEG_experiment,,2025.1.1,143.14650328877173,2026-01-21 16h24.39.611710 -0400,
213,0,213,up,None,0.32849129999999604,0.1359224999999924,,,213,0,213,0,316.4879611,,,,,,,,,,,,,,,,,,,,316.4828919,316.4879611,317.1288452,317.11321309999994,1,317.12678529999994,317.1288452,317.1288452,317.61676679999994,up,317.61682599999995,317.61686109999994,None,0.32849129999999604,0.1359224999999924,,,,,,,,,,,,,002,001,2026-01-21_16h24.17.410,NESC3137_EEG_experiment,,2025.1.1,143.14650328877173,2026-01-21 16h24.39.611710 -0400,
214,0,214,down,None,0.3528171000000384,None,,,214,0,214,0,317.6234432,,,,,,,,,,,,,,,,,,,,317.6170529,317.6234432,318.32052969999995,318.30406059999996,2,318.3172154,318.32052969999995,318.32052969999995,318.8091621,down,318.80924759999994,318.80927180000003,None,0.3528171000000384,None,,,,,,,,,,,,,002,001,2026-01-21_16h24.17.410,NESC3137_EEG_experiment,,2025.1.1,143.14650328877173,2026-01-21 16h24.39.611710 -0400,
215,0,215,up,None,0.4013644999999997,None,,,215,0,215,0,318.81505459999994,,,,,,,,,,,,,,,,,,,,318.80942319999997,318.81505459999994,319.6639731,319.6495565,1,319.66218689999994,319.6639731,319.6639731,320.1525332,up,320.1525805,320.1526041999999,None,0.4013644999999997,None,,,,,,,,,,,,,002,001,2026-01-21_16h24.17.410,NESC3137_EEG_experiment,,2025.1.1,143.14650328877173,2026-01-21 16h24.39.611710 -0400,
216,0,216,down,None,0.43910970000001726,None,,,216,0,216,0,320.158643,,,,,,,,,,,,,,,,,,,,320.152779,320.158643,320.7861965999999,320.76909179999996,2,320.7837349,320.7861965999999,320.7861965999999,321.27480660000003,down,321.27486639999995,321.27489860000003,None,0.43910970000001726,None,,,,,,,,,,,,,002,001,2026-01-21_16h24.17.410,NESC3137_EEG_experiment,,2025.1.1,143.14650328877173,2026-01-21 16h24.39.611710 -0400,
217,0,217,None,None,,,,,217,0,217,0,321.28173630000003,,,,,,,,,,,,,,,,,,,,321.2750724,321.28173630000003,321.8322657,321.8173015,2,321.83025069999997,321.8322657,321.8322657,322.3200661999999,None,322.32014089999996,322.3201746,None,,,,,,,,,,,,,,,002,001,2026-01-21_16h24.17.410,NESC3137_EEG_experiment,,2025.1.1,143.14650328877173,2026-01-21 16h24.39.611710 -0400,
218,0,218,up,None,0.4660636000000977,None,,,218,0,218,0,322.32606009999995,,,,,,,,,,,,,,,,,,,,322.32038639999996,322.32606009999995,323.23132279999993,323.2157909,1,323.2291246,323.23132279999993,323.23132279999993,323.7196253999999,up,323.7196867,323.71972029999995,None,0.4660636000000977,None,,,,,,,,,,,,,002,001,2026-01-21_16h24.17.410,NESC3137_EEG_experiment,,2025.1.1,143.14650328877173,2026-01-21 16h24.39.611710 -0400,
219,0,219,None,None,,,,,219,0,219,0,323.72579559999997,,,,,,,,,,,,,,,,,,,,323.71991319999995,323.72579559999997,324.4984618,324.48490749999996,1,324.4960747,324.4984618,324.4984618,324.9851742999999,None,324.9852264,324.9852572,None,,,,,,,,,,,,,,,002,001,2026-01-21_16h24.17.410,NESC3137_EEG_experiment,,2025.1.1,143.14650328877173,2026-01-21 16h24.39.611710 -0400,
220,0,220,down,None,0.39686919999996917,None,,,220,0,220,0,324.99179979999997,,,,,,,,,,,,,,,,,,,,324.98542079999993,324.99179979999997,325.6524208999999,325.6254956,2,325.6496688,325.6524208999999,325.6524208999999,326.1306321999999,down,326.1306873,326.1307098,None,0.39686919999996917,None,,,,,,,,,,,,,002,001,2026-01-21_16h24.17.410,NESC3137_EEG_experiment,,2025.1.1,143.14650328877173,2026-01-21 16h24.39.611710 -0400,
221,0,221,up,None,0.37018639999996594,None,,,221,0,221,0,326.13755100000003,,,,,,,,,,,,,,,,,,,,326.1308547,326.13755100000003,326.8154534,326.7898279,1,326.81351689999997,326.8154534,326.8154534,327.2900297,up,327.29007549999994,327.29009439999993,None,0.37018639999996594,None,,,,,,,,,,,,,002,001,2026-01-21_16h24.17.410,NESC3137_EEG_experiment,,2025.1.1,143.14650328877173,2026-01-21 16h24.39.611710 -0400,
222,0,222,None,None,,,,,222,0,222,0,327.297059,,,,,,,,,,,,,,,,,,,,327.29021609999995,327.297059,328.02696519999995,328.0071669,1,328.02475259999994,328.02696519999995,328.02696519999995,328.5134253,None,328.51346390000003,328.5134815,None,,,,,,,,,,,,,,,002,001,2026-01-21_16h24.17.410,NESC3137_EEG_experiment,,2025.1.1,143.14650328877173,2026-01-21 16h24.39.611710 -0400,
223,0,223,down,None,0.4538213999999243,None,,,223,0,223,0,328.5212209,,,,,,,,,,,,,,,,,,,,328.51359619999994,328.5212209,329.1874752,329.16805149999993,2,329.18550849999997,329.1874752,329.1874752,329.6735684,down,329.673629,329.67364739999994,None,0.4538213999999243,None,,,,,,,,,,,,,002,001,2026-01-21_16h24.17.410,NESC3137_EEG_experiment,,2025.1.1,143.14650328877173,2026-01-21 16h24.39.611710 -0400,
224,0,224,down,None,0.3856875000000173,None,,,224,0,224,0,329.6819047,,,,,,,,,,,,,,,,,,,,329.6737613,329.6819047,330.47155069999997,330.45863399999996,2,330.46933549999994,330.47155069999997,330.47155069999997,330.95867669999996,down,330.9587156,330.9587387,None,0.3856875000000173,None,330.96677379999994,330.96677379999994,,,,,,,,,,,002,001,2026-01-21_16h24.17.410,NESC3137_EEG_experiment,,2025.1.1,143.14650328877173,2026-01-21 16h24.39.611710 -0400,
225,0,225,up,None,0.4354207999999744,None,,,225,0,225,0,330.96677379999994,,,,,,,,,,,,,,,,,,,,330.95889669999997,330.96677379999994,331.6939668,331.6809145,1,331.6917737,331.6939668,331.6939668,332.18175239999994,up,332.181823,332.1818442,None,0.4354207999999744,None,,,,,,,,,,,,,002,001,2026-01-21_16h24.17.410,NESC3137_EEG_experiment,,2025.1.1,143.14650328877173,2026-01-21 16h24.39.611710 -0400,
226,0,226,down,None,0.40951749999999265,None,,,226,0,226,0,332.18834089999996,,,,,,,,,,,,,,,,,,,,332.1820182,332.18834089999996,332.6958452,332.6757014,2,332.6939288,332.6958452,332.6958452,333.1819709,down,333.182013,333.1820299,None,0.40951749999999265,None,,,,,,,,,,,,,002,001,2026-01-21_16h24.17.410,NESC3137_EEG_experiment,,2025.1.1,143.14650328877173,2026-01-21 16h24.39.611710 -0400,
