thisN,thisTrialN,thisRepN,key_resp_3.keys,key_resp_4.keys,key_resp_3.rt,key_resp_3.duration,key_resp_4.rt,key_resp_4.duration,trials.thisRepN,trials.thisTrialN,trials.thisN,trials.thisIndex,thisRow.t,notes,lsl_stream.started,lsl_stream.stopped,setup.started,setup.stopped,welcome.started,welcomeimg.started,key_resp.started,welcome.stopped,key_resp.keys,key_resp.rt,key_resp.duration,instruction.started,instructionimg.started,key_resp_2.started,instruction.stopped,key_resp_2.keys,key_resp_2.rt,key_resp_2.duration,fixation.started,cross.started,cross.stopped,fixation.stopped,trigger,face.started,faceStim.started,key_resp_3.started,face.stopped,trials.key_resp_3.keys,break_2.started,break_2.stopped,trials.key_resp_4.keys,trials.key_resp_3.rt,trials.key_resp_3.duration,breakimg.started,break2img.started,key_resp_4.started,breakimg.stopped,trials.key_resp_4.rt,trials.key_resp_4.duration,end.started,finish.started,finish.stopped,end.stopped,participant,session,date,expName,expVersion,psychopyVersion,frameRate,expStart,
,,,,,,,,,,,,,,,0.011081899996497668,0.011176700005307794,,,,,,,,,,,,,,,,,,,,,,,,,,,,,,,,,,,,,,,,,,001,001,2026-01-21_16h09.24.827,NESC3137_EEG_experiment,,2025.1.1,129.44078990021686,2026-01-21 16h11.31.220878 -0400,
,,,,,,,,,,,,,,,,,0.011204800000996329,0.011265799999819137,,,,,,,,,,,,,,,,,,,,,,,,,,,,,,,,,,,,,,,,001,001,2026-01-21_16h09.24.827,NESC3137_EEG_experiment,,2025.1.1,129.44078990021686,2026-01-21 16h11.31.220878 -0400,
,,,,,,,,,,,,,,,,,,,0.011332399997627363,0.016047700002673082,0.016047700002673082,3.728006400007871,space,3.5960596000077203,None,,,,,,,,,,,,,,,,,,,,,,,,,,,,,,,,,001,001,2026-01-21_16h09.24.827,NESC3137_EEG_experiment,,2025.1.1,129.44078990021686,2026-01-21 16h11.31.220878 -0400,
,,,,,,,,,,,,,,,,,,,,,,,,,,3.7280624999984866,3.7316014999960316,3.7316014999960316,9.681225499996799,space,5.944877599991742,None,,,,,,,,,,,,,,,,,,,,,,,,,,001,001,2026-01-21_16h09.24.827,NESC3137_EEG_experiment,,2025.1.1,129.44078990021686,2026-01-21 16h11.31.220878 -0400,
0,0,0,None,None,,,,,0,0,0,0,9.68881340000371,,,,,,,,,,,,,,,,,,,,9.683662900002673,9.68881340000371,10.454111400002148,10.438180099998135,1,10.452059400005965,10.454111400002148,10.454111400002148,10.943127799997455,None,10.943189800003893,10.943233700003475,None,,,,,,,,,,,,,001,001,2026-01-21_16h09.24.827,NESC3137_EEG_experiment,,2025.1.1,129.44078990021686,2026-01-21 16h11.31.220878 -0400,
1,0,1,None,None,,,,,1,0,1,0,10.949538100001519,,,,,,,,,,,,,,,,,,,,10.943547400005627,10.949538100001519,11.750835200000438,11.734475699995528,2,11.747573600005126,11.750835200000438,11.750835200000438,12.239032299999963,None,12.239096400007838,12.239134799994645,None,,,,,,,,,,,,,001,001,2026-01-21_16h09.24.827,NESC3137_EEG_experiment,,2025.1.1,129.44078990021686,2026-01-21 16h11.31.220878 -0400,
2,0,2,None,None,,,,,2,0,2,0,12.245473100003437,,,,,,,,,,,,,,,,,,,,12.239336600003298,12.245473100003437,12.761538300008397,12.74599070000113,1,12.758914799997001,12.761538300008397,12.761538300008397,13.250044500004151,None,13.250115100003313,13.250141299999086,None,,,,,,,,,,,,,001,001,2026-01-21_16h09.24.827,NESC3137_EEG_experiment,,2025.1.1,129.44078990021686,2026-01-21 16h11.31.220878 -0400,
3,0,3,None,None,,,,,3,0,3,0,13.256700099998852,,,,,,,,,,,,,,,,,,,,13.250366299995221,13.256700099998852,14.085184800002025,14.069530000007944,1,14.08238330000313,14.085184800002025,14.085184800002025,14.573266300008981,None,14.573323200005689,14.573357600005693,None,,,,,,,,,,,,,001,001,2026-01-21_16h09.24.827,NESC3137_EEG_experiment,,2025.1.1,129.44078990021686,2026-01-21 16h11.31.220878 -0400,
4,0,4,None,None,,,,,4,0,4,0,14.580048600008013,,,,,,,,,,,,,,,,,,,,14.573571800006903,14.580048600008013,15.34704910000437,15.330338200001279,2,15.344499200000428,15.34704910000437,15.34704910000437,15.835665599995991,None,15.83572250000725,15.83575880000717,None,,,,,,,,,,,,,001,001,2026-01-21_16h09.24.827,NESC3137_EEG_experiment,,2025.1.1,129.44078990021686,2026-01-21 16h11.31.220878 -0400,
5,0,5,None,None,,,,,5,0,5,0,15.842179700004635,,,,,,,,,,,,,,,,,,,,15.835955899994588,15.842179700004635,16.60258099999919,16.58544910000637,1,16.598592099995585,16.60258099999919,16.60258099999919,17.090991599994595,None,17.091059700003825,17.09109709999757,None,,,,,,,,,,,,,001,001,2026-01-21_16h09.24.827,NESC3137_EEG_experiment,,2025.1.1,129.44078990021686,2026-01-21 16h11.31.220878 -0400,
6,0,6,up,None,0.2552793999930145,None,,,6,0,6,0,17.097755900002085,,,,,,,,,,,,,,,,,,,,17.091310100004193,17.097755900002085,17.82885130000068,17.813257100002375,2,17.827054199995473,17.82885130000068,17.82885130000068,18.317396800004644,up,18.317462200007867,18.317497199997888,None,0.2552793999930145,None,,,,,,,,,,,001,001,2026-01-21_16h09.24.827,NESC3137_EEG_experiment,,2025.1.1,129.44078990021686,2026-01-21 16h11.31.220878 -0400,
7,0,7,None,None,,,,,7,0,7,0,18.32414670000435,,,,,,,,,,,,,,,,,,,,18.317674699996132,18.32414670000435,19.29183109999576,19.276138700006413,1,19.288795300002676,19.29183109999576,19.29183109999576,19.780231099997764,None,19.78028790000826,19.780322399994475,None,,,,,,,,,,,,,001,001,2026-01-21_16h09.24.827,NESC3137_EEG_experiment,,2025.1.1,129.44078990021686,2026-01-21 16h11.31.220878 -0400,
8,0,8,up,None,0.2730851999949664,0.07998059999954421,,,8,0,8,0,19.7870641000045,,,,,,,,,,,,,,,,,,,,19.78049820000888,19.7870641000045,20.75507220000145,20.73908480000682,1,20.752724899997702,20.75507220000145,20.75507220000145,21.243688600006863,up,21.243774600006873,21.243833200001973,None,0.2730851999949664,0.07998059999954421,,,,,,,,,,,001,001,2026-01-21_16h09.24.827,NESC3137_EEG_experiment,,2025.1.1,129.44078990021686,2026-01-21 16h11.31.220878 -0400,
9,0,9,None,None,,,,,9,0,9,0,21.250289600007818,,,,,,,,,,,,,,,,,,,,21.2440612000064,21.250289600007818,21.793555399999605,21.778662099997746,2,21.791614000001573,21.793555399999605,21.793555399999605,22.281879800008028,None,22.281924700000673,22.28195030000643,None,,,,,,,,,,,,,001,001,2026-01-21_16h09.24.827,NESC3137_EEG_experiment,,2025.1.1,129.44078990021686,2026-01-21 16h11.31.220878 -0400,
10,0,10,up,None,0.43937089999963064,None,,,10,0,10,0,22.28849999999511,,,,,,,,,,,,,,,,,,,,22.282090100008645,22.28849999999511,23.012729499998386,22.997528499996406,1,23.00982790000853,23.012729499998386,23.012729499998386,23.500318999998854,up,23.500367900007404,23.500390400004108,None,0.43937089999963064,None,,,,,,,,,,,001,001,2026-01-21_16h09.24.827,NESC3137_EEG_experiment,,2025.1.1,129.44078990021686,2026-01-21 16h11.31.220878 -0400,
11,0,11,down,None,0.4301121000025887,None,,,11,0,11,0,23.507493299999624,,,,,,,,,,,,,,,,,,,,23.500562300003367,23.507493299999624,24.07795960000658,24.063305400006357,2,24.076001699999324,24.07795960000658,24.07795960000658,24.565989299997455,down,24.566056600000593,24.566094699999667,None,0.4301121000025887,None,,,,,,,,,,,001,001,2026-01-21_16h09.24.827,NESC3137_EEG_experiment,,2025.1.1,129.44078990021686,2026-01-21 16h11.31.220878 -0400,
12,0,12,up,None,0.36352919999626465,0.10422780000953935,,,12,0,12,0,24.57268739999563,,,,,,,,,,,,,,,,,,,,24.566296100005275,24.57268739999563,25.40873969999666,25.39261009999609,1,25.405658999996376,25.40873969999666,25.40873969999666,25.897355900000548,up,25.89743749999616,25.897472700002254,None,0.36352919999626465,0.10422780000953935,,,,,,,,,,,001,001,2026-01-21_16h09.24.827,NESC3137_EEG_experiment,,2025.1.1,129.44078990021686,2026-01-21 16h11.31.220878 -0400,
13,0,13,up,None,0.40107440001156647,None,,,13,0,13,0,25.90395200000785,,,,,,,,,,,,,,,,,,,,25.897683400005917,25.90395200000785,26.810962899995502,26.793082600008347,1,26.807532100006938,26.810962899995502,26.810962899995502,27.299170900005265,up,27.299223399997572,27.29924920000485,None,0.40107440001156647,None,,,,,,,,,,,001,001,2026-01-21_16h09.24.827,NESC3137_EEG_experiment,,2025.1.1,129.44078990021686,2026-01-21 16h11.31.220878 -0400,
14,0,14,None,None,,,,,14,0,14,0,27.305902799998876,,,,,,,,,,,,,,,,,,,,27.299390100000892,27.305902799998876,27.840608900005464,27.820675399998436,1,27.83759779999673,27.840608900005464,27.840608900005464,28.32085279999592,None,28.32091429999855,28.32096040000033,None,,,,,,,,,,,,,001,001,2026-01-21_16h09.24.827,NESC3137_EEG_experiment,,2025.1.1,129.44078990021686,2026-01-21 16h11.31.220878 -0400,
15,0,15,None,None,,,,,15,0,15,0,28.32754549999663,,,,,,,,,,,,,,,,,,,,28.321152000004076,28.32754549999663,28.971351400003186,28.95366749999812,2,28.968313999997918,28.971351400003186,28.971351400003186,29.45916369999759,None,29.459223300000303,29.459270999999717,None,,,,,,,,,,,,,001,001,2026-01-21_16h09.24.827,NESC3137_EEG_experiment,,2025.1.1,129.44078990021686,2026-01-21 16h11.31.220878 -0400,
16,0,16,None,None,,,,,16,0,16,0,29.466314100005548,,,,,,,,,,,,,,,,,,,,29.45947729999898,29.466314100005548,29.98173260000476,29.96677970000019,2,29.97938580000482,29.98173260000476,29.98173260000476,30.469422599999234,None,30.469487199996365,30.469527699999162,None,,,,,,,,,,,,,001,001,2026-01-21_16h09.24.827,NESC3137_EEG_experiment,,2025.1.1,129.44078990021686,2026-01-21 16h11.31.220878 -0400,
17,0,17,None,None,,,,,17,0,17,0,30.475877400007448,,,,,,,,,,,,,,,,,,,,30.46972989999631,30.475877400007448,31.13837390000117,31.12249779999547,2,31.13566240000364,31.13837390000117,31.13837390000117,31.62631870000041,None,31.626378100001602,31.626416800005245,None,,,,,,,,,,,,,001,001,2026-01-21_16h09.24.827,NESC3137_EEG_experiment,,2025.1.1,129.44078990021686,2026-01-21 16h11.31.220878 -0400,
18,0,18,down,None,0.46006389999820385,None,,,18,0,18,0,31.633215499998187,,,,,,,,,,,,,,,,,,,,31.62660780000442,31.633215499998187,32.440094699995825,32.424827700000606,2,32.43717150000157,32.440094699995825,32.440094699995825,32.92774759999884,down,32.92782929999521,32.92788279999513,None,0.46006389999820385,None,,,,,,,,,,,001,001,2026-01-21_16h09.24.827,NESC3137_EEG_experiment,,2025.1.1,129.44078990021686,2026-01-21 16h11.31.220878 -0400,
19,0,19,None,None,,,,,19,0,19,0,32.933970700003556,,,,,,,,,,,,,,,,,,,,32.92802710000251,32.933970700003556,33.76716889999807,33.75353509999695,1,33.765247000003,33.76716889999807,33.76716889999807,34.25431250000838,None,34.25438600000052,34.25441160000628,None,,,,,,,,,,,,,001,001,2026-01-21_16h09.24.827,NESC3137_EEG_experiment,,2025.1.1,129.44078990021686,2026-01-21 16h11.31.220878 -0400,
20,0,20,None,None,,,,,20,0,20,0,34.261214400001336,,,,,,,,,,,,,,,,,,,,34.25456760000088,34.261214400001336,35.07149620000564,35.05339010000171,1,35.068739199996344,35.07149620000564,35.07149620000564,35.55926599999657,None,35.55932600000233,35.55936440000369,None,,,,,,,,,,,,,001,001,2026-01-21_16h09.24.827,NESC3137_EEG_experiment,,2025.1.1,129.44078990021686,2026-01-21 16h11.31.220878 -0400,
21,0,21,None,None,,,,,21,0,21,0,35.566669799998635,,,,,,,,,,,,,,,,,,,,35.55954790000396,35.566669799998635,36.51967080000031,36.50426630000584,1,36.51747790000809,36.51967080000031,36.51967080000031,37.008107100002235,None,37.00816890000715,37.00820470000326,None,,,,,,,,,,,,,001,001,2026-01-21_16h09.24.827,NESC3137_EEG_experiment,,2025.1.1,129.44078990021686,2026-01-21 16h11.31.220878 -0400,
22,0,22,up,None,0.4748649999964982,None,,,22,0,22,0,37.014919799999916,,,,,,,,,,,,,,,,,,,,37.008405100001255,37.014919799999916,37.87328300000809,37.855583199998364,1,37.8701929999952,37.87328300000809,37.87328300000809,38.36174249999749,up,38.361805799999274,38.3618284999975,None,0.4748649999964982,None,,,,,,,,,,,001,001,2026-01-21_16h09.24.827,NESC3137_EEG_experiment,,2025.1.1,129.44078990021686,2026-01-21 16h11.31.220878 -0400,
23,0,23,None,None,,,,,23,0,23,0,38.36841510000522,,,,,,,,,,,,,,,,,,,,38.36195530000259,38.36841510000522,39.20303800000693,39.18818860000465,2,39.20011020000675,39.20303800000693,39.20303800000693,39.69095450000896,None,39.690997400000924,39.69101949999458,None,,,,,,,,,,,,,001,001,2026-01-21_16h09.24.827,NESC3137_EEG_experiment,,2025.1.1,129.44078990021686,2026-01-21 16h11.31.220878 -0400,
24,0,24,None,None,,,,,24,0,24,0,39.697543999995105,,,,,,,,,,,,,,,,,,,,39.691162000002805,39.697543999995105,40.53943509999954,40.524453499994706,2,40.53693650000787,40.53943509999954,40.53943509999954,41.02742159999616,None,41.02748750000319,41.02752889999829,None,,,,,,,,,,,,,001,001,2026-01-21_16h09.24.827,NESC3137_EEG_experiment,,2025.1.1,129.44078990021686,2026-01-21 16h11.31.220878 -0400,
25,0,25,up,None,0.3615635000023758,0.11195960000623018,,,25,0,25,0,41.034174500004156,,,,,,,,,,,,,,,,,,,,41.027742100006435,41.034174500004156,41.611360299997614,41.596675299995695,2,41.60856500000227,41.611360299997614,41.611360299997614,42.098562400002265,up,42.09863639999821,42.09869070000423,None,0.3615635000023758,0.11195960000623018,,,,,,,,,,,001,001,2026-01-21_16h09.24.827,NESC3137_EEG_experiment,,2025.1.1,129.44078990021686,2026-01-21 16h11.31.220878 -0400,
26,0,26,up,None,0.3764015000051586,None,,,26,0,26,0,42.10607550000714,,,,,,,,,,,,,,,,,,,,42.098951599997235,42.10607550000714,43.09986360000039,43.08393150000484,1,43.095897699997295,43.09986360000039,43.09986360000039,43.58772520000639,up,43.587793200000306,43.58783180000319,None,0.3764015000051586,None,,,,,,,,,,,001,001,2026-01-21_16h09.24.827,NESC3137_EEG_experiment,,2025.1.1,129.44078990021686,2026-01-21 16h11.31.220878 -0400,
27,0,27,None,None,,,,,27,0,27,0,43.5943108000065,,,,,,,,,,,,,,,,,,,,43.588026600002195,43.5943108000065,44.10995620000176,44.09431760000007,2,44.1073211000039,44.10995620000176,44.10995620000176,44.59769090000191,None,44.5977503000031,44.59778680000454,None,,,,,,,,,,,,,001,001,2026-01-21_16h09.24.827,NESC3137_EEG_experiment,,2025.1.1,129.44078990021686,2026-01-21 16h11.31.220878 -0400,
28,0,28,None,None,,,,,28,0,28,0,44.60462589999952,,,,,,,,,,,,,,,,,,,,44.59798380000575,44.60462589999952,45.397339300005115,45.382589700006065,1,45.39526069999556,45.397339300005115,45.397339300005115,45.88530500000343,None,45.88536919999751,45.88540660000581,None,,,,,,,,,,,,,001,001,2026-01-21_16h09.24.827,NESC3137_EEG_experiment,,2025.1.1,129.44078990021686,2026-01-21 16h11.31.220878 -0400,
29,0,29,None,None,,,,,29,0,29,0,45.89204610000888,,,,,,,,,,,,,,,,,,,,45.885605799994664,45.89204610000888,46.867576999997254,46.85071890000836,1,46.86352230000193,46.867576999997254,46.867576999997254,47.355651300007594,None,47.35570810000354,47.35574810000253,None,,,,,,,,,,,,,001,001,2026-01-21_16h09.24.827,NESC3137_EEG_experiment,,2025.1.1,129.44078990021686,2026-01-21 16h11.31.220878 -0400,
30,0,30,down,None,0.4392465999990236,None,,,30,0,30,0,47.36292899999535,,,,,,,,,,,,,,,,,,,,47.35592919999908,47.36292899999535,48.35701340000378,48.342548000000534,2,48.35519139999815,48.35701340000378,48.35701340000378,48.844957799999975,down,48.845029699994484,48.84507009999652,None,0.4392465999990236,None,,,,,,,,,,,001,001,2026-01-21_16h09.24.827,NESC3137_EEG_experiment,,2025.1.1,129.44078990021686,2026-01-21 16h11.31.220878 -0400,
31,0,31,None,None,,,,,31,0,31,0,48.85193390000495,,,,,,,,,,,,,,,,,,,,48.845268400007626,48.85193390000495,49.77634009999747,49.761868700006744,1,49.773402300008456,49.77634009999747,49.77634009999747,50.263380899996264,None,50.26344280000194,50.26348389999475,None,,,,,,,,,,,,,001,001,2026-01-21_16h09.24.827,NESC3137_EEG_experiment,,2025.1.1,129.44078990021686,2026-01-21 16h11.31.220878 -0400,
32,0,32,None,None,,,,,32,0,32,0,50.269588600000134,,,,,,,,,,,,,,,,,,,,50.26370759999554,50.269588600000134,50.919306299998425,50.90229850000469,1,50.91617070000211,50.919306299998425,50.919306299998425,51.40835559999687,None,51.40842409999459,51.408463600004325,None,,,,,,,,,,,,,001,001,2026-01-21_16h09.24.827,NESC3137_EEG_experiment,,2025.1.1,129.44078990021686,2026-01-21 16h11.31.220878 -0400,
33,0,33,None,None,,,,,33,0,33,0,51.41486319999967,,,,,,,,,,,,,,,,,,,,51.40867109999817,51.41486319999967,52.08649270000751,52.0681634000066,1,52.08325429999968,52.08649270000751,52.08649270000751,52.574646799999755,None,52.574700099998154,52.57472400000552,None,,,,,,,,,,,,,001,001,2026-01-21_16h09.24.827,NESC3137_EEG_experiment,,2025.1.1,129.44078990021686,2026-01-21 16h11.31.220878 -0400,
34,0,34,down,None,0.464980500008096,None,,,34,0,34,0,52.58125679999648,,,,,,,,,,,,,,,,,,,,52.57487150000816,52.58125679999648,53.235140300006606,53.22061420000682,2,53.23299540000153,53.235140300006606,53.235140300006606,53.72323899999901,down,53.723302200000035,53.723338499999954,None,0.464980500008096,None,,,,,,,,,,,001,001,2026-01-21_16h09.24.827,NESC3137_EEG_experiment,,2025.1.1,129.44078990021686,2026-01-21 16h11.31.220878 -0400,
35,0,35,up,None,0.4157578000013018,None,,,35,0,35,0,53.72997719999694,,,,,,,,,,,,,,,,,,,,53.723534200005815,53.72997719999694,54.7243976000027,54.70973960000265,1,54.722512100008316,54.7243976000027,54.7243976000027,55.21366100000159,up,55.21372310000879,55.21374690000084,None,0.4157578000013018,None,,,,,,,,,,,001,001,2026-01-21_16h09.24.827,NESC3137_EEG_experiment,,2025.1.1,129.44078990021686,2026-01-21 16h11.31.220878 -0400,
36,0,36,down,None,0.43478690000483766,None,,,36,0,36,0,55.21874209999805,,,,,,,,,,,,,,,,,,,,55.21393110000645,55.21874209999805,56.201379899997846,56.18491809999978,2,56.199229499994544,56.201379899997846,56.201379899997846,56.69031659999746,down,56.69037660000322,56.69041650000145,None,0.43478690000483766,None,,,,,,,,,,,001,001,2026-01-21_16h09.24.827,NESC3137_EEG_experiment,,2025.1.1,129.44078990021686,2026-01-21 16h11.31.220878 -0400,
37,0,37,up,None,0.43237650000082795,None,,,37,0,37,0,56.69651650000014,,,,,,,,,,,,,,,,,,,,56.690567600002396,56.69651650000014,57.3878979000001,57.371238699997775,1,57.38497830000415,57.3878979000001,57.3878979000001,57.87624949999736,up,57.87631320000219,57.87635140000202,None,0.43237650000082795,None,,,,,,,,,,,001,001,2026-01-21_16h09.24.827,NESC3137_EEG_experiment,,2025.1.1,129.44078990021686,2026-01-21 16h11.31.220878 -0400,
38,0,38,down,None,0.4477301000006264,None,,,38,0,38,0,57.88309040000604,,,,,,,,,,,,,,,,,,,,57.876556999995955,57.88309040000604,58.67677679999906,58.66139900000417,2,58.67447310000716,58.67677679999906,58.67677679999906,59.165916600002674,down,59.16598839999642,59.166031600005226,None,0.4477301000006264,None,,,,,,,,,,,001,001,2026-01-21_16h09.24.827,NESC3137_EEG_experiment,,2025.1.1,129.44078990021686,2026-01-21 16h11.31.220878 -0400,
39,0,39,None,None,,,,,39,0,39,0,59.17265380000754,,,,,,,,,,,,,,,,,,,,59.16623729999992,59.17265380000754,60.15508480000426,60.13832470000489,1,60.151875700001256,60.15508480000426,60.15508480000426,60.64289329999883,None,60.64295009999478,60.64299029999529,None,,,,,,,,,,,,,001,001,2026-01-21_16h09.24.827,NESC3137_EEG_experiment,,2025.1.1,129.44078990021686,2026-01-21 16h11.31.220878 -0400,
40,0,40,up,None,0.433310700012953,None,,,40,0,40,0,60.65034259999811,,,,,,,,,,,,,,,,,,,,60.64317310000479,60.65034259999811,61.33889030000137,61.32413670000096,1,61.33645709999837,61.33889030000137,61.33889030000137,61.82681500000763,up,61.826879300002474,61.826913400000194,None,0.433310700012953,None,,,,,,,,,,,001,001,2026-01-21_16h09.24.827,NESC3137_EEG_experiment,,2025.1.1,129.44078990021686,2026-01-21 16h11.31.220878 -0400,
41,0,41,up,None,0.28417530001024716,0.08793939999304712,,,41,0,41,0,61.833826000001864,,,,,,,,,,,,,,,,,,,,61.82709390000673,61.833826000001864,62.583964000004926,62.57021049999457,1,62.582137599994894,62.583964000004926,62.583964000004926,63.07134270000097,up,63.071427700007916,63.07146520000242,None,0.28417530001024716,0.08793939999304712,,,,,,,,,,,001,001,2026-01-21_16h09.24.827,NESC3137_EEG_experiment,,2025.1.1,129.44078990021686,2026-01-21 16h11.31.220878 -0400,
42,0,42,down,None,0.42355619999580085,None,,,42,0,42,0,63.0777012000035,,,,,,,,,,,,,,,,,,,,63.071665700001176,63.0777012000035,63.780712100007804,63.76602730000741,2,63.778002999999444,63.780712100007804,63.780712100007804,64.26802590000443,down,64.26809610000055,64.26812799999607,None,0.42355619999580085,None,,,,,,,,,,,001,001,2026-01-21_16h09.24.827,NESC3137_EEG_experiment,,2025.1.1,129.44078990021686,2026-01-21 16h11.31.220878 -0400,
43,0,43,down,None,0.440747000000556,None,,,43,0,43,0,64.27562210000178,,,,,,,,,,,,,,,,,,,,64.26828459999524,64.27562210000178,65.23572630000126,65.22006839999813,2,65.23273709999921,65.23572630000126,65.23572630000126,65.72343520000868,down,65.7235059000086,65.72354310000082,None,0.440747000000556,None,,,,,,,,,,,001,001,2026-01-21_16h09.24.827,NESC3137_EEG_experiment,,2025.1.1,129.44078990021686,2026-01-21 16h11.31.220878 -0400,
44,0,44,up,None,0.4768195999931777,None,,,44,0,44,0,65.73043670000334,,,,,,,,,,,,,,,,,,,,65.72375089999696,65.73043670000334,66.60747849999461,66.59176890000526,1,66.60478579999472,66.60747849999461,66.60747849999461,67.09534610000264,up,67.09542310000688,67.09546310000587,None,0.4768195999931777,None,,,,,,,,,,,001,001,2026-01-21_16h09.24.827,NESC3137_EEG_experiment,,2025.1.1,129.44078990021686,2026-01-21 16h11.31.220878 -0400,
45,0,45,None,None,,,,,45,0,45,0,67.10294209999847,,,,,,,,,,,,,,,,,,,,67.09565950000251,67.10294209999847,67.65286460000789,67.63774000000558,2,67.65085910000198,67.65286460000789,67.65286460000789,68.14115320000565,None,68.14122400000633,68.1413171000022,None,,,,,,,,,,,,,001,001,2026-01-21_16h09.24.827,NESC3137_EEG_experiment,,2025.1.1,129.44078990021686,2026-01-21 16h11.31.220878 -0400,
46,0,46,up,None,0.2310077000001911,0.1358202999981586,,,46,0,46,0,68.1475638999982,,,,,,,,,,,,,,,,,,,,68.14150559999689,68.1475638999982,68.94129070000781,68.92622829999891,2,68.9386383999954,68.94129070000781,68.94129070000781,69.429452700002,up,69.42951889999676,69.42955430000438,None,0.2310077000001911,0.1358202999981586,,,,,,,,,,,001,001,2026-01-21_16h09.24.827,NESC3137_EEG_experiment,,2025.1.1,129.44078990021686,2026-01-21 16h11.31.220878 -0400,
47,0,47,up,None,0.38603699998930097,None,,,47,0,47,0,69.43589550000615,,,,,,,,,,,,,,,,,,,,69.42974639999738,69.43589550000615,70.32205950000207,70.30492530000629,1,70.31902569999511,70.32205950000207,70.32205950000207,70.81041489999916,up,70.81048290000763,70.81051989999833,None,0.38603699998930097,None,,,,,,,,,,,001,001,2026-01-21_16h09.24.827,NESC3137_EEG_experiment,,2025.1.1,129.44078990021686,2026-01-21 16h11.31.220878 -0400,
48,0,48,down,None,0.39961540000513196,None,,,48,0,48,0,70.81714009999996,,,,,,,,,,,,,,,,,,,,70.81070800000452,70.81714009999996,71.33261660000426,71.31768510000256,2,71.33003500000632,71.33261660000426,71.33261660000426,71.82138320000377,down,71.82146780000767,71.8215099000081,None,0.39961540000513196,None,,,,,,,,,,,001,001,2026-01-21_16h09.24.827,NESC3137_EEG_experiment,,2025.1.1,129.44078990021686,2026-01-21 16h11.31.220878 -0400,
49,0,49,None,None,,,,,49,0,49,0,71.82640289999836,,,,,,,,,,,,,,,,,,,,71.82174729999679,71.82640289999836,72.52935189999698,72.51470810000319,2,72.52656220000063,72.52935189999698,72.52935189999698,73.01614799999516,None,73.01620749999711,73.01624599999923,None,,,,,,,,,,,,,001,001,2026-01-21_16h09.24.827,NESC3137_EEG_experiment,,2025.1.1,129.44078990021686,2026-01-21 16h11.31.220878 -0400,
50,0,50,None,None,,,,,50,0,50,0,73.02295980000054,,,,,,,,,,,,,,,,,,,,73.01644279999891,73.02295980000054,73.57235380000202,73.55819500000507,1,73.56981529999757,73.57235380000202,73.57235380000202,74.05981669999892,None,74.05987280000409,74.0599016000051,None,,,,,,,,,,,,,001,001,2026-01-21_16h09.24.827,NESC3137_EEG_experiment,,2025.1.1,129.44078990021686,2026-01-21 16h11.31.220878 -0400,
51,0,51,None,None,,,,,51,0,51,0,74.06626819999656,,,,,,,,,,,,,,,,,,,,74.06007170000521,74.06626819999656,74.76915979999467,74.75411989999702,1,74.76641189999646,74.76915979999467,74.76915979999467,75.25712330000533,None,75.25720000000729,75.25723070000822,None,,,,,,,,,,,,,001,001,2026-01-21_16h09.24.827,NESC3137_EEG_experiment,,2025.1.1,129.44078990021686,2026-01-21 16h11.31.220878 -0400,
52,0,52,down,None,0.4668882000114536,None,,,52,0,52,0,75.26381330000004,,,,,,,,,,,,,,,,,,,,75.25740159999987,75.26381330000004,75.79352790000848,75.77791970000544,2,75.79010080000444,75.79352790000848,75.79352790000848,76.28213429999596,down,76.28221259999555,76.28225040000689,None,0.4668882000114536,None,,,,,,,,,,,001,001,2026-01-21_16h09.24.827,NESC3137_EEG_experiment,,2025.1.1,129.44078990021686,2026-01-21 16h11.31.220878 -0400,
53,0,53,None,None,,,,,53,0,53,0,76.28818920000049,,,,,,,,,,,,,,,,,,,,76.28246430000581,76.28818920000049,77.26369069999782,77.24708450000617,1,77.26065530000778,77.26369069999782,77.26369069999782,77.75224790000357,None,77.75232300000789,77.75237010000274,None,,,,,,,,,,,,,001,001,2026-01-21_16h09.24.827,NESC3137_EEG_experiment,,2025.1.1,129.44078990021686,2026-01-21 16h11.31.220878 -0400,
54,0,54,None,None,,,,,54,0,54,0,77.75896429999557,,,,,,,,,,,,,,,,,,,,77.75262509999448,77.75896429999557,78.5927953000064,78.57838760000595,2,78.59015630000795,78.5927953000064,78.5927953000064,79.07938009999634,None,79.07942389999516,79.07944719999796,None,,,,,,,,,,,,,001,001,2026-01-21_16h09.24.827,NESC3137_EEG_experiment,,2025.1.1,129.44078990021686,2026-01-21 16h11.31.220878 -0400,
55,0,55,up,None,0.4062240999919595,None,,,55,0,55,0,79.08632099999522,,,,,,,,,,,,,,,,,,,,79.07957420000457,79.08632099999522,79.83809220000694,79.82272310000553,1,79.835768799996,79.83809220000694,79.83809220000694,80.32582850000472,up,80.32590969999728,80.32595800000126,None,0.4062240999919595,None,,,,,,,,,,,001,001,2026-01-21_16h09.24.827,NESC3137_EEG_experiment,,2025.1.1,129.44078990021686,2026-01-21 16h11.31.220878 -0400,
56,0,56,None,None,,,,,56,0,56,0,80.33361070000683,,,,,,,,,,,,,,,,,,,,80.3261649000051,80.33361070000683,81.23838029999752,81.22263689999818,2,81.23625309999625,81.23838029999752,81.23838029999752,81.7269965000014,None,81.72706370000378,81.7271030999982,None,,,,,,,,,,,,,001,001,2026-01-21_16h09.24.827,NESC3137_EEG_experiment,,2025.1.1,129.44078990021686,2026-01-21 16h11.31.220878 -0400,
57,0,57,None,None,,,,,57,0,57,0,81.73370440000144,,,,,,,,,,,,,,,,,,,,81.72731499999645,81.73370440000144,82.57433020000462,82.55907659999502,2,82.57133030000841,82.57433020000462,82.57433020000462,83.06105069999467,None,83.06112260000373,83.06114800000796,None,,,,,,,,,,,,,001,001,2026-01-21_16h09.24.827,NESC3137_EEG_experiment,,2025.1.1,129.44078990021686,2026-01-21 16h11.31.220878 -0400,
58,0,58,up,None,0.41091800000867806,None,,,58,0,58,0,83.06782759999624,,,,,,,,,,,,,,,,,,,,83.06127790000755,83.06782759999624,83.93737660000625,83.92224440000427,1,83.934445100007,83.93737660000625,83.93737660000625,84.42503749999742,up,84.425092400008,84.42511759999616,None,0.41091800000867806,None,,,,,,,,,,,001,001,2026-01-21_16h09.24.827,NESC3137_EEG_experiment,,2025.1.1,129.44078990021686,2026-01-21 16h11.31.220878 -0400,
59,0,59,up,None,0.34261580000747927,0.12010010000085458,,,59,0,59,0,84.43182690000685,,,,,,,,,,,,,,,,,,,,84.42526519999956,84.43182690000685,85.09356330000446,85.0776368000079,1,85.09073599999829,85.09356330000446,85.09356330000446,85.58152160000463,up,85.58159630000591,85.58167410000169,None,0.34261580000747927,0.12010010000085458,,,,,,,,,,,001,001,2026-01-21_16h09.24.827,NESC3137_EEG_experiment,,2025.1.1,129.44078990021686,2026-01-21 16h11.31.220878 -0400,
60,0,60,None,None,,,,,60,0,60,0,85.58810560000711,,,,,,,,,,,,,,,,,,,,85.58189670000866,85.58810560000711,86.2465011000022,86.22758410000824,1,86.24306589999469,86.2465011000022,86.2465011000022,86.73406489999616,None,86.73413739999523,86.7341665999993,None,,,,,,,,,,,,,001,001,2026-01-21_16h09.24.827,NESC3137_EEG_experiment,,2025.1.1,129.44078990021686,2026-01-21 16h11.31.220878 -0400,
61,0,61,None,None,,,,,61,0,61,0,86.74116970000614,,,,,,,,,,,,,,,,,,,,86.7343045000016,86.74116970000614,87.70718739999575,87.69263089999731,1,87.70501819999481,87.70718739999575,87.70718739999575,88.1956874000025,None,88.19576620000589,88.1958059000026,None,,,,,,,,,,,,,001,001,2026-01-21_16h09.24.827,NESC3137_EEG_experiment,,2025.1.1,129.44078990021686,2026-01-21 16h11.31.220878 -0400,
62,0,62,down,None,0.4709112999989884,None,,,62,0,62,0,88.20239469999797,,,,,,,,,,,,,,,,,,,,88.1960059999983,88.20239469999797,88.7252584999951,88.70965350000188,2,88.72205650000251,88.7252584999951,88.7252584999951,89.21390099999553,down,89.21396920000552,89.21399279999605,None,0.4709112999989884,None,,,,,,,,,,,001,001,2026-01-21_16h09.24.827,NESC3137_EEG_experiment,,2025.1.1,129.44078990021686,2026-01-21 16h11.31.220878 -0400,
63,0,63,None,None,,,,,63,0,63,0,89.22061459999532,,,,,,,,,,,,,,,,,,,,89.214172100008,89.22061459999532,90.04038849999779,90.02614479999465,2,90.03817310000886,90.04038849999779,90.04038849999779,90.52760800000397,None,90.52766469999915,90.52771180000855,None,,,,,,,,,,,,,001,001,2026-01-21_16h09.24.827,NESC3137_EEG_experiment,,2025.1.1,129.44078990021686,2026-01-21 16h11.31.220878 -0400,
64,0,64,down,None,0.356052200004342,None,,,64,0,64,0,90.53464430000167,,,,,,,,,,,,,,,,,,,,90.52796170000511,90.53464430000167,91.53617310000118,91.5216603000008,2,91.53355409999494,91.53617310000118,91.53617310000118,92.02456370000436,down,92.0246371999965,92.0246776999993,None,0.356052200004342,None,,,,,,,,,,,001,001,2026-01-21_16h09.24.827,NESC3137_EEG_experiment,,2025.1.1,129.44078990021686,2026-01-21 16h11.31.220878 -0400,
65,0,65,up,None,0.43152609998651315,None,,,65,0,65,0,92.03122980000626,,,,,,,,,,,,,,,,,,,,92.02490010000474,92.03122980000626,92.74072230000456,92.72613999999885,1,92.7384233000048,92.74072230000456,92.74072230000456,93.22835390000546,up,93.22843109999667,93.22847080000793,None,0.43152609998651315,None,,,,,,,,,,,001,001,2026-01-21_16h09.24.827,NESC3137_EEG_experiment,,2025.1.1,129.44078990021686,2026-01-21 16h11.31.220878 -0400,
66,0,66,up,None,0.4342899000039324,None,,,66,0,66,0,93.23484479999752,,,,,,,,,,,,,,,,,,,,93.22869319999882,93.23484479999752,93.93792219999887,93.92211139999563,1,93.9350046000036,93.93792219999887,93.93792219999887,94.42539810000744,up,94.42550359999586,94.4255770000018,None,0.4342899000039324,None,,,,,,,,,,,001,001,2026-01-21_16h09.24.827,NESC3137_EEG_experiment,,2025.1.1,129.44078990021686,2026-01-21 16h11.31.220878 -0400,
67,0,67,None,None,,,,,67,0,67,0,94.43299800000386,,,,,,,,,,,,,,,,,,,,94.42582699999912,94.43299800000386,95.03168300000834,95.01641209999798,2,95.02895849999913,95.03168300000834,95.03168300000834,95.51887050000369,None,95.51892709999811,95.51896280000801,None,,,,,,,,,,,,,001,001,2026-01-21_16h09.24.827,NESC3137_EEG_experiment,,2025.1.1,129.44078990021686,2026-01-21 16h11.31.220878 -0400,
68,0,68,up,None,0.3821687000017846,None,,,68,0,68,0,95.5266699000058,,,,,,,,,,,,,,,,,,,,95.51915069999814,95.5266699000058,96.46206689999963,96.44334399999934,1,96.45876870000211,96.46206689999963,96.46206689999963,96.94349659999716,up,96.94356899999548,96.94361699999718,None,0.3821687000017846,None,,,,,,,,,,,001,001,2026-01-21_16h09.24.827,NESC3137_EEG_experiment,,2025.1.1,129.44078990021686,2026-01-21 16h11.31.220878 -0400,
69,0,69,None,None,,,,,69,0,69,0,96.95033590000821,,,,,,,,,,,,,,,,,,,,96.94383119999839,96.95033590000821,97.6174835999991,97.60292689999915,1,97.61399230000097,97.6174835999991,97.6174835999991,98.10459960000298,None,98.10465409999597,98.10467770000105,None,,,,,,,,,,,,,001,001,2026-01-21_16h09.24.827,NESC3137_EEG_experiment,,2025.1.1,129.44078990021686,2026-01-21 16h11.31.220878 -0400,
70,0,70,None,None,,,,,70,0,70,0,98.11080290000245,,,,,,,,,,,,,,,,,,,,98.10483660000318,98.11080290000245,98.8551288000017,98.84039460000349,2,98.85305810000864,98.8551288000017,98.8551288000017,99.34243299999798,None,99.3424851000018,99.34250929999689,None,,,,,,,,,,,,,001,001,2026-01-21_16h09.24.827,NESC3137_EEG_experiment,,2025.1.1,129.44078990021686,2026-01-21 16h11.31.220878 -0400,
71,0,71,up,None,0.43336680000356864,None,,,71,0,71,0,99.34997840000142,,,,,,,,,,,,,,,,,,,,99.3426499000052,99.34997840000142,100.1629266999953,100.14887360000284,1,100.16113490000134,100.1629266999953,100.1629266999953,100.65007560000231,up,100.65012770000612,100.65016040000774,None,0.43336680000356864,None,,,,,,,,,,,001,001,2026-01-21_16h09.24.827,NESC3137_EEG_experiment,,2025.1.1,129.44078990021686,2026-01-21 16h11.31.220878 -0400,
72,0,72,down,None,0.4554855000023963,None,,,72,0,72,0,100.65703539999959,,,,,,,,,,,,,,,,,,,,100.65030829999887,100.65703539999959,101.28481120000652,101.26856900000712,2,101.28261120000388,101.28481120000652,101.28481120000652,101.77363890000561,down,101.77371490000223,101.77375449999818,None,0.4554855000023963,None,,,,,,,,,,,001,001,2026-01-21_16h09.24.827,NESC3137_EEG_experiment,,2025.1.1,129.44078990021686,2026-01-21 16h11.31.220878 -0400,
73,0,73,None,None,,,,,73,0,73,0,101.7801185999997,,,,,,,,,,,,,,,,,,,,101.773967000001,101.7801185999997,102.65575049999461,102.64169829999446,1,102.65355990000535,102.65575049999461,102.65575049999461,103.14252219999616,None,103.14257999999973,103.14261579999584,None,,,,,,,,,,,,,001,001,2026-01-21_16h09.24.827,NESC3137_EEG_experiment,,2025.1.1,129.44078990021686,2026-01-21 16h11.31.220878 -0400,
74,0,74,up,None,0.3879087000095751,None,,,74,0,74,0,103.14992830000119,,,,,,,,,,,,,,,,,,,,103.14280050000525,103.14992830000119,103.83233889999974,103.81704059999902,1,103.82962560000306,103.83233889999974,103.83233889999974,104.32031260000076,up,104.32038760000432,104.32042750000255,None,0.3879087000095751,None,,,,,,,,,,,001,001,2026-01-21_16h09.24.827,NESC3137_EEG_experiment,,2025.1.1,129.44078990021686,2026-01-21 16h11.31.220878 -0400,
75,0,75,None,None,,,,,75,0,75,0,104.32725080000819,,,,,,,,,,,,,,,,,,,,104.32062909999513,104.32725080000819,105.25147960000322,105.23708220000844,1,105.24871549999807,105.25147960000322,105.25147960000322,105.73871570000483,None,105.73878490000789,105.73881340000662,None,,,,,,,,,,,,,001,001,2026-01-21_16h09.24.827,NESC3137_EEG_experiment,,2025.1.1,129.44078990021686,2026-01-21 16h11.31.220878 -0400,
76,0,76,None,None,,,,,76,0,76,0,105.74515260000771,,,,,,,,,,,,,,,,,,,,105.73898789999657,105.74515260000771,106.54604260000633,106.53036540000176,1,106.54419230000349,106.54604260000633,106.54604260000633,107.03430379999918,None,107.0343864000024,107.03443450000486,None,,,,,,,,,,,,,001,001,2026-01-21_16h09.24.827,NESC3137_EEG_experiment,,2025.1.1,129.44078990021686,2026-01-21 16h11.31.220878 -0400,
77,0,77,down,None,0.4406992000003811,None,,,77,0,77,0,107.04176130000269,,,,,,,,,,,,,,,,,,,,107.03464290000557,107.04176130000269,108.03573669999605,108.02086040000722,2,108.0338114000042,108.03573669999605,108.03573669999605,108.52435580000747,down,108.52444310000283,108.52448239999649,None,0.4406992000003811,None,,,,,,,,,,,001,001,2026-01-21_16h09.24.827,NESC3137_EEG_experiment,,2025.1.1,129.44078990021686,2026-01-21 16h11.31.220878 -0400,
78,0,78,None,None,,,,,78,0,78,0,108.5307843000046,,,,,,,,,,,,,,,,,,,,108.52470979999634,108.5307843000046,109.40194480000355,109.38565920000838,1,109.39910640000016,109.40194480000355,109.40194480000355,109.89047610000125,None,109.89052000000083,109.89054510000278,None,,,,,,,,,,,,,001,001,2026-01-21_16h09.24.827,NESC3137_EEG_experiment,,2025.1.1,129.44078990021686,2026-01-21 16h11.31.220878 -0400,
79,0,79,up,None,0.36756480000622105,None,,,79,0,79,0,109.89726149999478,,,,,,,,,,,,,,,,,,,,109.89068969999789,109.89726149999478,110.5725875000062,110.5583415000001,1,110.57024899999669,110.5725875000062,110.5725875000062,111.06037829999696,up,111.06045659999654,111.06050229999528,None,0.36756480000622105,None,,,,,,,,,,,001,001,2026-01-21_16h09.24.827,NESC3137_EEG_experiment,,2025.1.1,129.44078990021686,2026-01-21 16h11.31.220878 -0400,
80,0,80,up,None,0.4583300000085728,None,,,80,0,80,0,111.06774410000071,,,,,,,,,,,,,,,,,,,,111.06070020000334,111.06774410000071,111.97811579999689,111.96396560000721,1,111.97535609999613,111.97811579999689,111.97811579999689,112.46532430000661,up,112.46540559999994,112.46543810000003,None,0.4583300000085728,None,,,,,,,,,,,001,001,2026-01-21_16h09.24.827,NESC3137_EEG_experiment,,2025.1.1,129.44078990021686,2026-01-21 16h11.31.220878 -0400,
81,0,81,up,None,0.3815967999980785,None,,,81,0,81,0,112.4718106000073,,,,,,,,,,,,,,,,,,,,112.46563229999447,112.4718106000073,113.44663000000583,113.43072020000545,1,113.44433240000217,113.44663000000583,113.44663000000583,113.93518250000488,up,113.9352452000021,113.93528020000667,None,0.3815967999980785,None,,,,,,,,,,,001,001,2026-01-21_16h09.24.827,NESC3137_EEG_experiment,,2025.1.1,129.44078990021686,2026-01-21 16h11.31.220878 -0400,
82,0,82,down,None,0.46844629998668097,None,,,82,0,82,0,113.94197090000671,,,,,,,,,,,,,,,,,,,,113.93545790000644,113.94197090000671,114.5597112999967,114.54003770000418,2,114.55661400000099,114.5597112999967,114.5597112999967,115.04659009999887,down,115.04666950000683,115.04672220000066,None,0.46844629998668097,None,,,,,,,,,,,001,001,2026-01-21_16h09.24.827,NESC3137_EEG_experiment,,2025.1.1,129.44078990021686,2026-01-21 16h11.31.220878 -0400,
83,0,83,None,None,,,,,83,0,83,0,115.05404430000635,,,,,,,,,,,,,,,,,,,,115.04689120000694,115.05404430000635,116.0226163000043,116.00550339999609,2,116.01864809999825,116.0226163000043,116.0226163000043,116.51113800000167,None,116.51119170000311,116.51121880000574,None,,,,,,,,,,,,,001,001,2026-01-21_16h09.24.827,NESC3137_EEG_experiment,,2025.1.1,129.44078990021686,2026-01-21 16h11.31.220878 -0400,
84,0,84,None,None,,,,,84,0,84,0,116.51804130000528,,,,,,,,,,,,,,,,,,,,116.51139020000119,116.51804130000528,117.51437459999579,117.49766459999955,2,117.51187090000894,117.51437459999579,117.51437459999579,118.00350610000896,None,118.00357040000381,118.00360900000669,None,,,,,,,,,,,,,001,001,2026-01-21_16h09.24.827,NESC3137_EEG_experiment,,2025.1.1,129.44078990021686,2026-01-21 16h11.31.220878 -0400,
85,0,85,None,None,,,,,85,0,85,0,118.00997929999721,,,,,,,,,,,,,,,,,,,,118.00380289999885,118.00997929999721,118.5884148000041,118.5731633999967,1,118.58594099999755,118.5884148000041,118.5884148000041,119.07657489999838,None,119.0766306000005,119.07666649999737,None,,,,,,,,,,,,,001,001,2026-01-21_16h09.24.827,NESC3137_EEG_experiment,,2025.1.1,129.44078990021686,2026-01-21 16h11.31.220878 -0400,
86,0,86,None,None,,,,,86,0,86,0,119.08362930000294,,,,,,,,,,,,,,,,,,,,119.07685009999841,119.08362930000294,119.69581299999845,119.68106849999458,2,119.69293570000445,119.69581299999845,119.69581299999845,120.1836706000031,None,120.18374839999888,120.1837904999993,None,,,,,,,,,,,,,001,001,2026-01-21_16h09.24.827,NESC3137_EEG_experiment,,2025.1.1,129.44078990021686,2026-01-21 16h11.31.220878 -0400,
87,0,87,up,None,0.47111559999757446,None,,,87,0,87,0,120.19067799999902,,,,,,,,,,,,,,,,,,,,120.18399600000703,120.19067799999902,120.99733019999985,120.98277030000463,1,120.99469790000876,120.99733019999985,120.99733019999985,121.48423790000379,up,121.48431440000422,121.4843569000077,None,0.47111559999757446,None,,,,,,,,,,,001,001,2026-01-21_16h09.24.827,NESC3137_EEG_experiment,,2025.1.1,129.44078990021686,2026-01-21 16h11.31.220878 -0400,
88,0,88,None,None,,,,,88,0,88,0,121.49049929999455,,,,,,,,,,,,,,,,,,,,121.48461090000637,121.49049929999455,122.2901761999965,122.2757500000007,1,122.28745820000768,122.2901761999965,122.2901761999965,122.77717620000476,None,122.777227700004,122.77725349999673,None,,,,,,,,,,,,,001,001,2026-01-21_16h09.24.827,NESC3137_EEG_experiment,,2025.1.1,129.44078990021686,2026-01-21 16h11.31.220878 -0400,
89,0,89,down,None,0.4390342000115197,None,,,89,0,89,0,122.78378529999463,,,,,,,,,,,,,,,,,,,,122.7774042999954,122.78378529999463,123.51725649999571,123.4997388000047,2,123.51397699999507,123.51725649999571,123.51725649999571,124.00560020000557,down,124.00567120000778,124.0057017000072,None,0.4390342000115197,None,,,,,,,,,,,001,001,2026-01-21_16h09.24.827,NESC3137_EEG_experiment,,2025.1.1,129.44078990021686,2026-01-21 16h11.31.220878 -0400,
90,0,90,up,None,0.389367099996889,None,,,90,0,90,0,124.01233690000663,,,,,,,,,,,,,,,,,,,,124.00586380000459,124.01233690000663,124.56698570000299,124.54808229999617,1,124.56384080000862,124.56698570000299,124.56698570000299,125.05467720000888,up,125.05475939999451,125.05480090000492,None,0.389367099996889,None,,,,,,,,,,,001,001,2026-01-21_16h09.24.827,NESC3137_EEG_experiment,,2025.1.1,129.44078990021686,2026-01-21 16h11.31.220878 -0400,
91,0,91,up,None,0.4602018000005046,None,,,91,0,91,0,125.0612950000068,,,,,,,,,,,,,,,,,,,,125.05501500000537,125.0612950000068,125.9451107000059,125.92954080000345,1,125.94329369999468,125.9451107000059,125.9451107000059,126.43402889999561,up,126.43411080000806,126.4341631999996,None,0.4602018000005046,None,,,,,,,,,,,001,001,2026-01-21_16h09.24.827,NESC3137_EEG_experiment,,2025.1.1,129.44078990021686,2026-01-21 16h11.31.220878 -0400,
92,0,92,up,None,0.4331322999933036,None,,,92,0,92,0,126.44010249999701,,,,,,,,,,,,,,,,,,,,126.43440070000361,126.44010249999701,127.26717200000712,127.25367510000069,1,127.26543919999676,127.26717200000712,127.26717200000712,127.75437690000399,up,127.75445599999512,127.75449390000722,None,0.4331322999933036,None,,,,,,,,,,,001,001,2026-01-21_16h09.24.827,NESC3137_EEG_experiment,,2025.1.1,129.44078990021686,2026-01-21 16h11.31.220878 -0400,
93,0,93,up,None,0.4714988000050653,None,,,93,0,93,0,127.76141780000762,,,,,,,,,,,,,,,,,,,,127.75477179999871,127.76141780000762,128.2687728000019,128.25492740000482,1,128.26694699999643,128.2687728000019,128.2687728000019,128.7558207999973,up,128.75589939999918,128.75593919999665,None,0.4714988000050653,None,,,,,,,,,,,001,001,2026-01-21_16h09.24.827,NESC3137_EEG_experiment,,2025.1.1,129.44078990021686,2026-01-21 16h11.31.220878 -0400,
94,0,94,None,None,,,,,94,0,94,0,128.76262809999753,,,,,,,,,,,,,,,,,,,,128.75614290000522,128.76262809999753,129.6075453000085,129.5895998000051,2,129.60516520000238,129.6075453000085,129.6075453000085,130.09599299999536,None,130.09606630000053,130.09610560000874,None,,,,,,,,,,,,,001,001,2026-01-21_16h09.24.827,NESC3137_EEG_experiment,,2025.1.1,129.44078990021686,2026-01-21 16h11.31.220878 -0400,
95,0,95,None,None,,,,,95,0,95,0,130.1028110000043,,,,,,,,,,,,,,,,,,,,130.0963771999959,130.1028110000043,131.08331640000688,131.06908960000146,2,131.080572699997,131.08331640000688,131.08331640000688,131.5717500000028,None,131.57180720000179,131.57183450000593,None,,,,,,,,,,,,,001,001,2026-01-21_16h09.24.827,NESC3137_EEG_experiment,,2025.1.1,129.44078990021686,2026-01-21 16h11.31.220878 -0400,
96,0,96,down,None,0.45646169999963604,None,,,96,0,96,0,131.57831919999444,,,,,,,,,,,,,,,,,,,,131.5720283999981,131.57831919999444,132.53965920000337,132.5233995000017,2,132.5372486999986,132.53965920000337,132.53965920000337,133.02834469999652,down,133.0283933000028,133.02841700000863,None,0.45646169999963604,None,,,,,,,,,,,001,001,2026-01-21_16h09.24.827,NESC3137_EEG_experiment,,2025.1.1,129.44078990021686,2026-01-21 16h11.31.220878 -0400,
97,0,97,None,None,,,,,97,0,97,0,133.03470119999838,,,,,,,,,,,,,,,,,,,,133.02854939999816,133.03470119999838,133.79384690000734,133.7788145999948,1,133.7910608999955,133.79384690000734,133.79384690000734,134.2820214999956,None,134.2820805000083,134.28211680000823,None,,,,,,,,,,,,,001,001,2026-01-21_16h09.24.827,NESC3137_EEG_experiment,,2025.1.1,129.44078990021686,2026-01-21 16h11.31.220878 -0400,
98,0,98,up,None,0.3892645000014454,None,,,98,0,98,0,134.28835109999636,,,,,,,,,,,,,,,,,,,,134.28231080000114,134.28835109999636,135.1992309000052,135.18477490000078,1,135.1966293000005,135.1992309000052,135.1992309000052,135.68603979999898,up,135.68613750000077,135.68617630000517,None,0.3892645000014454,None,,,,,,,,,,,001,001,2026-01-21_16h09.24.827,NESC3137_EEG_experiment,,2025.1.1,129.44078990021686,2026-01-21 16h11.31.220878 -0400,
99,0,99,None,None,,,,,99,0,99,0,135.69271760000265,,,,,,,,,,,,,,,,,,,,135.68635509999876,135.69271760000265,136.44323469999654,136.42968879999535,2,136.44149620000098,136.44323469999654,136.44323469999654,136.93045529999654,None,136.93051330000162,136.9305527999968,None,,,,,,,,,,,,,001,001,2026-01-21_16h09.24.827,NESC3137_EEG_experiment,,2025.1.1,129.44078990021686,2026-01-21 16h11.31.220878 -0400,
100,0,100,None,None,,,,,100,0,100,0,136.93716709999717,,,,,,,,,,,,,,,,,,,,136.93074720000732,136.93716709999717,137.56107480000355,137.5422311000002,2,137.55755460000364,137.56107480000355,137.56107480000355,138.04874660000496,None,138.0488056000031,138.04884400000446,None,,,,,,,,,,,,,001,001,2026-01-21_16h09.24.827,NESC3137_EEG_experiment,,2025.1.1,129.44078990021686,2026-01-21 16h11.31.220878 -0400,
101,0,101,None,None,,,,,101,0,101,0,138.0555694000068,,,,,,,,,,,,,,,,,,,,138.04904369999713,138.0555694000068,138.9250858000014,138.9100952000008,2,138.92238620000717,138.9250858000014,138.9250858000014,139.4129060999985,None,139.41296810000495,139.41300810000394,None,,,,,,,,,,,,,001,001,2026-01-21_16h09.24.827,NESC3137_EEG_experiment,,2025.1.1,129.44078990021686,2026-01-21 16h11.31.220878 -0400,
102,0,102,None,None,,,,,102,0,102,0,139.41945430000487,,,,,,,,,,,,,,,,,,,,139.4132113000087,139.41945430000487,140.22630460000073,140.2116648000083,1,140.22382060000382,140.22630460000073,140.22630460000073,140.71501119999448,None,140.71505440000328,140.71507920000295,None,,,,,,,,,,,,,001,001,2026-01-21_16h09.24.827,NESC3137_EEG_experiment,,2025.1.1,129.44078990021686,2026-01-21 16h11.31.220878 -0400,
103,0,103,None,None,,,,,103,0,103,0,140.7215131999983,,,,,,,,,,,,,,,,,,,,140.71521490000305,140.7215131999983,141.64815039999667,141.6315678999963,2,141.64512509999622,141.64815039999667,141.64815039999667,142.13650550000602,None,142.13656810000248,142.13661080000747,None,,,,,,,,,,,,,001,001,2026-01-21_16h09.24.827,NESC3137_EEG_experiment,,2025.1.1,129.44078990021686,2026-01-21 16h11.31.220878 -0400,
104,0,104,up,None,0.481451499988907,None,,,104,0,104,0,142.14288670000678,,,,,,,,,,,,,,,,,,,,142.13680690000183,142.14288670000678,142.6668542999978,142.65044720000878,1,142.6646325000038,142.6668542999978,142.6668542999978,143.1558828999987,up,143.15602480000234,143.1560679999966,None,0.481451499988907,None,,,,,,,,,,,001,001,2026-01-21_16h09.24.827,NESC3137_EEG_experiment,,2025.1.1,129.44078990021686,2026-01-21 16h11.31.220878 -0400,
105,0,105,up,None,0.3998499000008451,0.07986519999394659,,,105,0,105,0,143.16274680000788,,,,,,,,,,,,,,,,,,,,143.15625470000668,143.16274680000788,143.90054899999814,143.88496779999696,1,143.89836540000397,143.90054899999814,143.90054899999814,144.38884840000537,up,144.38891720000538,144.3889571000036,None,0.3998499000008451,0.07986519999394659,,,,,,,,,,,001,001,2026-01-21_16h09.24.827,NESC3137_EEG_experiment,,2025.1.1,129.44078990021686,2026-01-21 16h11.31.220878 -0400,
106,0,106,down,None,0.4564100999996299,None,,,106,0,106,0,144.39621999999508,,,,,,,,,,,,,,,,,,,,144.38915879999695,144.39621999999508,144.93185219999577,144.9174056000047,2,144.92976080000517,144.93185219999577,144.93185219999577,145.41902430000482,down,145.41907509999874,145.41909959999612,None,0.4564100999996299,None,,,,,,,,,,,001,001,2026-01-21_16h09.24.827,NESC3137_EEG_experiment,,2025.1.1,129.44078990021686,2026-01-21 16h11.31.220878 -0400,
107,0,107,None,None,,,,,107,0,107,0,145.42588350000733,,,,,,,,,,,,,,,,,,,,145.41923980000138,145.42588350000733,146.1404365000053,146.12734320000163,1,146.13753720000386,146.1404365000053,146.1404365000053,146.62781049999467,None,146.62787009999738,146.62790229999518,None,,,,,,,,,,,,,001,001,2026-01-21_16h09.24.827,NESC3137_EEG_experiment,,2025.1.1,129.44078990021686,2026-01-21 16h11.31.220878 -0400,
108,0,108,None,None,,,,,108,0,108,0,146.63427730000694,,,,,,,,,,,,,,,,,,,,146.6280521000008,146.63427730000694,147.23969190000207,147.22480890000588,2,147.2367249999952,147.23969190000207,147.23969190000207,147.7278007999994,None,147.72785700000532,147.7278873000032,None,,,,,,,,,,,,,001,001,2026-01-21_16h09.24.827,NESC3137_EEG_experiment,,2025.1.1,129.44078990021686,2026-01-21 16h11.31.220878 -0400,
109,0,109,up,None,0.46224290000100154,None,,,109,0,109,0,147.73458380000375,,,,,,,,,,,,,,,,,,,,147.7280971,147.73458380000375,148.2700913000008,148.25572570000077,1,148.26760960000684,148.2700913000008,148.2700913000008,148.75736139999935,up,148.75746010000876,148.7575027999992,None,0.46224290000100154,None,,,,,,,,,,,001,001,2026-01-21_16h09.24.827,NESC3137_EEG_experiment,,2025.1.1,129.44078990021686,2026-01-21 16h11.31.220878 -0400,
110,0,110,None,None,,,,,110,0,110,0,148.76321330000064,,,,,,,,,,,,,,,,,,,,148.75772290000168,148.76321330000064,149.34159080000245,149.326524899996,2,149.33918530000665,149.34159080000245,149.34159080000245,149.8302154999983,None,149.83028090000153,149.8303173000022,None,,,,,,,,,,,,,001,001,2026-01-21_16h09.24.827,NESC3137_EEG_experiment,,2025.1.1,129.44078990021686,2026-01-21 16h11.31.220878 -0400,
111,0,111,None,None,,,,,111,0,111,0,149.83720890000404,,,,,,,,,,,,,,,,,,,,149.83049989999563,149.83720890000404,150.8200666000048,150.80270569999993,2,150.816854100005,150.8200666000048,150.8200666000048,151.30901670000458,None,151.30907560000196,151.30911319999723,None,,,,,,,,,,,,,001,001,2026-01-21_16h09.24.827,NESC3137_EEG_experiment,,2025.1.1,129.44078990021686,2026-01-21 16h11.31.220878 -0400,
112,0,112,None,None,,,,,112,0,112,0,151.31591380000464,,,,,,,,,,,,,,,,,,,,151.30930079999962,151.31591380000464,151.9698875000031,151.9542780000047,1,151.96625969999877,151.9698875000031,151.9698875000031,152.45750980000594,None,152.45757389999926,152.4576137999975,None,,,,,,,,,,,,,001,001,2026-01-21_16h09.24.827,NESC3137_EEG_experiment,,2025.1.1,129.44078990021686,2026-01-21 16h11.31.220878 -0400,
113,0,113,down,None,0.4308591000008164,None,,,113,0,113,0,152.4643883999961,,,,,,,,,,,,,,,,,,,,152.45781120000174,152.4643883999961,153.2296798000025,153.21468079999613,2,153.2269690999965,153.2296798000025,153.2296798000025,153.717590500004,down,153.71768660000816,153.71771300000546,None,0.4308591000008164,None,,,,,,,,,,,001,001,2026-01-21_16h09.24.827,NESC3137_EEG_experiment,,2025.1.1,129.44078990021686,2026-01-21 16h11.31.220878 -0400,
114,0,114,None,None,,,,,114,0,114,0,153.72427120000066,,,,,,,,,,,,,,,,,,,,153.7179227000015,153.72427120000066,154.3503439000051,154.33547299999918,1,154.34740680000687,154.3503439000051,154.3503439000051,154.83702459999768,None,154.83709539999836,154.83712700000615,None,,,,,,,,,,,,,001,001,2026-01-21_16h09.24.827,NESC3137_EEG_experiment,,2025.1.1,129.44078990021686,2026-01-21 16h11.31.220878 -0400,
115,0,115,down,None,0.45571429999836255,None,,,115,0,115,0,154.8438809000072,,,,,,,,,,,,,,,,,,,,154.83727570000337,154.8438809000072,155.7565689000039,155.74050480000733,2,155.75412589999905,155.7565689000039,155.7565689000039,156.24586740000814,down,156.24593420000747,156.24595959999715,None,0.45571429999836255,None,,,,,,,,,,,001,001,2026-01-21_16h09.24.827,NESC3137_EEG_experiment,,2025.1.1,129.44078990021686,2026-01-21 16h11.31.220878 -0400,
116,0,116,up,None,0.3696524999977555,None,,,116,0,116,0,156.25213039999653,,,,,,,,,,,,,,,,,,,,156.24611190000724,156.25213039999653,156.95475940000324,156.93976900000416,1,156.9520443000074,156.95475940000324,156.95475940000324,157.44152989999566,up,157.4415927000082,157.4416280000005,None,0.3696524999977555,None,,,,,,,,,,,001,001,2026-01-21_16h09.24.827,NESC3137_EEG_experiment,,2025.1.1,129.44078990021686,2026-01-21 16h11.31.220878 -0400,
117,0,117,None,None,,,,,117,0,117,0,157.4483176000067,,,,,,,,,,,,,,,,,,,,157.4418091999978,157.4483176000067,158.06827109999722,158.05306279999786,2,158.0655870000046,158.06827109999722,158.06827109999722,158.55609929999628,None,158.55615839999518,158.55619640000805,None,,,,,,,,,,,,,001,001,2026-01-21_16h09.24.827,NESC3137_EEG_experiment,,2025.1.1,129.44078990021686,2026-01-21 16h11.31.220878 -0400,
118,0,118,None,None,,,,,118,0,118,0,158.56289390000165,,,,,,,,,,,,,,,,,,,,158.5563867000019,158.56289390000165,159.3838836000068,159.3692730000039,2,159.38130320000346,159.3838836000068,159.3838836000068,159.87204440000642,None,159.87212500000896,159.8721680000017,None,,,,,,,,,,,,,001,001,2026-01-21_16h09.24.827,NESC3137_EEG_experiment,,2025.1.1,129.44078990021686,2026-01-21 16h11.31.220878 -0400,
119,0,119,down,None,0.45554739999352023,None,,,119,0,119,0,159.87845760000346,,,,,,,,,,,,,,,,,,,,159.8724130000046,159.87845760000346,160.63669810000283,160.62189510000462,2,160.63451299999724,160.63669810000283,160.63669810000283,161.12451589999546,down,161.12459180000587,161.12463350000326,None,0.45554739999352023,None,,,,,,,,,,,001,001,2026-01-21_16h09.24.827,NESC3137_EEG_experiment,,2025.1.1,129.44078990021686,2026-01-21 16h11.31.220878 -0400,
120,0,120,down,None,0.41159990000596736,None,,,120,0,120,0,161.1318797999993,,,,,,,,,,,,,,,,,,,,161.12483850000717,161.1318797999993,162.03272529999958,162.01430750000873,2,162.02977039999678,162.03272529999958,162.03272529999958,162.520755000005,down,162.5208227999974,162.520846600004,None,0.41159990000596736,None,,,,,,,,,,,001,001,2026-01-21_16h09.24.827,NESC3137_EEG_experiment,,2025.1.1,129.44078990021686,2026-01-21 16h11.31.220878 -0400,
121,0,121,None,None,,,,,121,0,121,0,162.52752930000133,,,,,,,,,,,,,,,,,,,,162.5211580000032,162.52752930000133,163.12602769999648,163.11088580000796,1,163.1228534999973,163.12602769999648,163.12602769999648,163.61363819999679,None,163.61369019999984,163.6137158000056,None,,,,,,,,,,,,,001,001,2026-01-21_16h09.24.827,NESC3137_EEG_experiment,,2025.1.1,129.44078990021686,2026-01-21 16h11.31.220878 -0400,
122,0,122,None,None,,,,,122,0,122,0,163.6207418999984,,,,,,,,,,,,,,,,,,,,163.6138546000002,163.6207418999984,164.14974249999796,164.1345202000084,2,164.1464932999952,164.14974249999796,164.14974249999796,164.63777280000795,None,164.63783279999916,164.6378715000028,None,,,,,,,,,,,,,001,001,2026-01-21_16h09.24.827,NESC3137_EEG_experiment,,2025.1.1,129.44078990021686,2026-01-21 16h11.31.220878 -0400,
123,0,123,up,None,0.39649699999426957,None,,,123,0,123,0,164.64496489999874,,,,,,,,,,,,,,,,,,,,164.63807040000393,164.64496489999874,165.51990939999814,165.50632129999576,1,165.51803479999944,165.51990939999814,165.51990939999814,166.00733120000223,up,166.00739369999792,166.0074203999975,None,0.39649699999426957,None,,,,,,,,,,,001,001,2026-01-21_16h09.24.827,NESC3137_EEG_experiment,,2025.1.1,129.44078990021686,2026-01-21 16h11.31.220878 -0400,
124,0,124,down,None,0.4203761999960989,None,,,124,0,124,0,166.01394620000792,,,,,,,,,,,,,,,,,,,,166.0076051000069,166.01394620000792,166.90383999999904,166.8889915000036,2,166.90070050000213,166.90383999999904,166.90383999999904,167.3899309999979,down,167.38999989999866,167.3900399999984,None,0.4203761999960989,None,,,,,,,,,,,001,001,2026-01-21_16h09.24.827,NESC3137_EEG_experiment,,2025.1.1,129.44078990021686,2026-01-21 16h11.31.220878 -0400,
125,0,125,None,None,,,,,125,0,125,0,167.3971542000072,,,,,,,,,,,,,,,,,,,,167.39023499999894,167.3971542000072,168.39862459999858,168.3837296999991,2,168.39569479999773,168.39862459999858,168.39862459999858,168.8873256000079,None,168.88739319999877,168.88744040000893,None,,,,,,,,,,,,,001,001,2026-01-21_16h09.24.827,NESC3137_EEG_experiment,,2025.1.1,129.44078990021686,2026-01-21 16h11.31.220878 -0400,
126,0,126,up,None,0.4153963999997359,None,,,126,0,126,0,168.89461669999582,,,,,,,,,,,,,,,,,,,,168.88763520000794,168.89461669999582,169.64489219999814,169.6308313000045,1,169.64313250000123,169.64489219999814,169.64489219999814,170.13235440000426,up,170.13242300000275,170.13245810000808,None,0.4153963999997359,None,,,,,,,,,,,001,001,2026-01-21_16h09.24.827,NESC3137_EEG_experiment,,2025.1.1,129.44078990021686,2026-01-21 16h11.31.220878 -0400,
127,0,127,down,None,0.40791199999512173,None,,,127,0,127,0,170.1389141999971,,,,,,,,,,,,,,,,,,,,170.1326098999998,170.1389141999971,170.66034060000675,170.64629430000787,2,170.65831260000414,170.66034060000675,170.66034060000675,171.146882800007,down,171.14694740000414,171.14698380000482,None,0.40791199999512173,None,,,,,,,,,,,001,001,2026-01-21_16h09.24.827,NESC3137_EEG_experiment,,2025.1.1,129.44078990021686,2026-01-21 16h11.31.220878 -0400,
128,0,128,down,None,0.4282011000032071,None,,,128,0,128,0,171.15462560000014,,,,,,,,,,,,,,,,,,,,171.14717130000645,171.15462560000014,172.08013420000498,172.06435420000344,2,172.0772624999954,172.08013420000498,172.08013420000498,172.56879469999694,down,172.56885579999653,172.5688880999951,None,0.4282011000032071,None,,,,,,,,,,,001,001,2026-01-21_16h09.24.827,NESC3137_EEG_experiment,,2025.1.1,129.44078990021686,2026-01-21 16h11.31.220878 -0400,
129,0,129,down,None,0.3984463999950094,None,,,129,0,129,0,172.57527699999628,,,,,,,,,,,,,,,,,,,,172.56903130000865,172.57527699999628,173.53400050000346,173.51997239999764,2,173.53120430000126,173.53400050000346,173.53400050000346,174.02053229999729,down,174.02060350000102,174.02064050000627,None,0.3984463999950094,None,,,,,,,,,,,001,001,2026-01-21_16h09.24.827,NESC3137_EEG_experiment,,2025.1.1,129.44078990021686,2026-01-21 16h11.31.220878 -0400,
130,0,130,down,None,0.3905139999988023,None,,,130,0,130,0,174.0278907000029,,,,,,,,,,,,,,,,,,,,174.0208394000074,174.0278907000029,174.99803919999977,174.97992420000082,2,174.99500389999594,174.99803919999977,174.99803919999977,175.48597470000095,down,175.48604129999876,175.48607700000866,None,0.3905139999988023,None,,,,,,,,,,,001,001,2026-01-21_16h09.24.827,NESC3137_EEG_experiment,,2025.1.1,129.44078990021686,2026-01-21 16h11.31.220878 -0400,
131,0,131,None,None,,,,,131,0,131,0,175.4928152000066,,,,,,,,,,,,,,,,,,,,175.48626030000742,175.4928152000066,176.0450478999992,176.02789660000417,1,176.04189180000685,176.0450478999992,176.0450478999992,176.53351989999646,None,176.53356490000442,176.53359000000637,None,,,,,,,,,,,,,001,001,2026-01-21_16h09.24.827,NESC3137_EEG_experiment,,2025.1.1,129.44078990021686,2026-01-21 16h11.31.220878 -0400,
132,0,132,None,None,,,,,132,0,132,0,176.5401400999981,,,,,,,,,,,,,,,,,,,,176.53376299999945,176.5401400999981,177.40953750000335,177.39506640000036,2,177.40691849999712,177.40953750000335,177.40953750000335,177.8989411000075,None,177.89900710000074,177.8990341000026,None,,,,,,,,,,,,,001,001,2026-01-21_16h09.24.827,NESC3137_EEG_experiment,,2025.1.1,129.44078990021686,2026-01-21 16h11.31.220878 -0400,
133,0,133,down,None,0.4355972000048496,None,,,133,0,133,0,177.90518509999674,,,,,,,,,,,,,,,,,,,,177.89922279999882,177.90518509999674,178.59366579999914,178.57884210000338,2,178.59090110000398,178.59366579999914,178.59366579999914,179.08076019999862,down,179.08083279999846,179.08086830000684,None,0.4355972000048496,None,,,,,,,,,,,001,001,2026-01-21_16h09.24.827,NESC3137_EEG_experiment,,2025.1.1,129.44078990021686,2026-01-21 16h11.31.220878 -0400,
134,0,134,down,None,0.4673058000043966,None,,,134,0,134,0,179.08703609999793,,,,,,,,,,,,,,,,,,,,179.08106739999494,179.08703609999793,179.81700369999453,179.80284519999987,2,179.81467839999823,179.81700369999453,179.81700369999453,180.30410979999579,down,180.30417459999444,180.3042118000012,None,0.4673058000043966,None,,,,,,,,,,,001,001,2026-01-21_16h09.24.827,NESC3137_EEG_experiment,,2025.1.1,129.44078990021686,2026-01-21 16h11.31.220878 -0400,
135,0,135,None,None,,,,,135,0,135,0,180.3107627999998,,,,,,,,,,,,,,,,,,,,180.3044086000009,180.3107627999998,181.01663060000283,180.9991130999988,2,181.01354889999493,181.01663060000283,181.01663060000283,181.5051286999951,None,181.5052074999985,181.50525400000333,None,,,,,,,,,,,,,001,001,2026-01-21_16h09.24.827,NESC3137_EEG_experiment,,2025.1.1,129.44078990021686,2026-01-21 16h11.31.220878 -0400,
136,0,136,None,None,,,,,136,0,136,0,181.51187620000564,,,,,,,,,,,,,,,,,,,,181.50545340000826,181.51187620000564,182.07282380000106,182.05382770000142,1,182.069891799998,182.07282380000106,182.07282380000106,182.5606092000089,None,182.56068270000105,182.5607214000047,None,,,,,,,,,,,,,001,001,2026-01-21_16h09.24.827,NESC3137_EEG_experiment,,2025.1.1,129.44078990021686,2026-01-21 16h11.31.220878 -0400,
137,0,137,None,None,,,,,137,0,137,0,182.5676003999979,,,,,,,,,,,,,,,,,,,,182.56086480000522,182.5676003999979,183.16035930000362,183.1438441000064,2,183.1572376999975,183.16035930000362,183.16035930000362,183.64851270000509,None,183.64856420000433,183.64858639999875,None,,,,,,,,,,,,,001,001,2026-01-21_16h09.24.827,NESC3137_EEG_experiment,,2025.1.1,129.44078990021686,2026-01-21 16h11.31.220878 -0400,
138,0,138,up,None,0.3915594999998575,None,,,138,0,138,0,183.65506879999884,,,,,,,,,,,,,,,,,,,,183.64871239999775,183.65506879999884,184.3570497000037,184.3434847000026,1,184.3549567000009,184.3570497000037,184.3570497000037,184.84412520000478,up,184.8441931999987,184.8442289999948,None,0.3915594999998575,None,,,,,,,,,,,001,001,2026-01-21_16h09.24.827,NESC3137_EEG_experiment,,2025.1.1,129.44078990021686,2026-01-21 16h11.31.220878 -0400,
139,0,139,None,None,,,,,139,0,139,0,184.8508323999995,,,,,,,,,,,,,,,,,,,,184.84442360000685,184.8508323999995,185.61570130000473,185.60138039999583,1,185.6128810000082,185.61570130000473,185.61570130000473,186.1021427000087,None,186.10220320000371,186.10223869999754,None,,,,,,,,,,,,,001,001,2026-01-21_16h09.24.827,NESC3137_EEG_experiment,,2025.1.1,129.44078990021686,2026-01-21 16h11.31.220878 -0400,
140,0,140,None,None,,,,,140,0,140,0,186.10969090000435,,,,,,,,,,,,,,,,,,,,186.1024316999974,186.10969090000435,186.77673880000657,186.76252010000462,1,186.7749918000045,186.77673880000657,186.77673880000657,187.26431969999976,None,187.26436830000603,187.26439240000036,None,,,,,,,,,,,,,001,001,2026-01-21_16h09.24.827,NESC3137_EEG_experiment,,2025.1.1,129.44078990021686,2026-01-21 16h11.31.220878 -0400,
141,0,141,down,None,0.42510379999293946,None,,,141,0,141,0,187.27081070000713,,,,,,,,,,,,,,,,,,,,187.26453040000342,187.27081070000713,188.19533539999975,188.1809254999971,2,188.19325900000695,188.19533539999975,188.19533539999975,188.68371820000175,down,188.6837891000032,188.6838265999977,None,0.42510379999293946,None,,,,,,,,,,,001,001,2026-01-21_16h09.24.827,NESC3137_EEG_experiment,,2025.1.1,129.44078990021686,2026-01-21 16h11.31.220878 -0400,
142,0,142,up,None,0.45436350000090897,None,,,142,0,142,0,188.69037120000576,,,,,,,,,,,,,,,,,,,,188.6839975000039,188.69037120000576,189.26194130000658,189.24667079999927,1,189.25926760000584,189.26194130000658,189.26194130000658,189.7499533000082,up,189.75001180000254,189.7500379999983,None,0.45436350000090897,None,,,,,,,,,,,001,001,2026-01-21_16h09.24.827,NESC3137_EEG_experiment,,2025.1.1,129.44078990021686,2026-01-21 16h11.31.220878 -0400,
143,0,143,down,None,0.41610689999652095,None,,,143,0,143,0,189.75673589999496,,,,,,,,,,,,,,,,,,,,189.75018260000797,189.75673589999496,190.55647900000622,190.5418650000065,2,190.55402470000263,190.55647900000622,190.55647900000622,191.04372169999988,down,191.04378190000716,191.04380939999828,None,0.41610689999652095,None,,,,,,,,,,,001,001,2026-01-21_16h09.24.827,NESC3137_EEG_experiment,,2025.1.1,129.44078990021686,2026-01-21 16h11.31.220878 -0400,
144,0,144,None,None,,,,,144,0,144,0,191.05041670000355,,,,,,,,,,,,,,,,,,,,191.04404110000178,191.05041670000355,192.02820250000514,192.00924820000364,2,192.02501860000484,192.02820250000514,192.02820250000514,192.51614799999516,None,192.5162258000055,192.51627360000566,None,,,,,,,,,,,,,001,001,2026-01-21_16h09.24.827,NESC3137_EEG_experiment,,2025.1.1,129.44078990021686,2026-01-21 16h11.31.220878 -0400,
145,0,145,None,None,,,,,145,0,145,0,192.52274250000482,,,,,,,,,,,,,,,,,,,,192.51649799999723,192.52274250000482,193.39889140000741,193.38421730000118,1,193.39643839999917,193.39889140000741,193.39889140000741,193.88584810000611,None,193.88591050000105,193.8859522999992,None,,,,,,,,,,,,,001,001,2026-01-21_16h09.24.827,NESC3137_EEG_experiment,,2025.1.1,129.44078990021686,2026-01-21 16h11.31.220878 -0400,
146,0,146,up,None,0.43519790000573266,None,,,146,0,146,0,193.89243700000225,,,,,,,,,,,,,,,,,,,,193.8862233999971,193.89243700000225,194.55313749999914,194.53887509999913,1,194.55082390000462,194.55313749999914,194.55313749999914,195.04179909999948,up,195.04187830000592,195.0419169000088,None,0.43519790000573266,None,,,,,,,,,,,001,001,2026-01-21_16h09.24.827,NESC3137_EEG_experiment,,2025.1.1,129.44078990021686,2026-01-21 16h11.31.220878 -0400,
147,0,147,down,None,0.4420673999993596,None,,,147,0,147,0,195.04849299999478,,,,,,,,,,,,,,,,,,,,195.0421459000063,195.04849299999478,195.73827289999463,195.72180509999453,2,195.7352283000073,195.73827289999463,195.73827289999463,196.22641990000557,down,196.22649210000236,196.22652920000837,None,0.4420673999993596,None,,,,,,,,,,,001,001,2026-01-21_16h09.24.827,NESC3137_EEG_experiment,,2025.1.1,129.44078990021686,2026-01-21 16h11.31.220878 -0400,
148,0,148,None,None,,,,,148,0,148,0,196.23309150000568,,,,,,,,,,,,,,,,,,,,196.2267356999946,196.23309150000568,197.16349360000459,197.14323560000048,2,197.16092550000758,197.16349360000459,197.16349360000459,197.64366750000045,None,197.64372229999572,197.6437459000008,None,,,,,,,,,,,,,001,001,2026-01-21_16h09.24.827,NESC3137_EEG_experiment,,2025.1.1,129.44078990021686,2026-01-21 16h11.31.220878 -0400,
149,0,149,up,None,0.45066380000207573,None,,,149,0,149,0,197.65057080000406,,,,,,,,,,,,,,,,,,,,197.6438918000058,197.65057080000406,198.4975917999982,198.4840538999997,1,198.4957643000089,198.4975917999982,198.4975917999982,198.9844740999979,up,198.98454530000163,198.9845886999974,None,0.45066380000207573,None,,,,,,,,,,,001,001,2026-01-21_16h09.24.827,NESC3137_EEG_experiment,,2025.1.1,129.44078990021686,2026-01-21 16h11.31.220878 -0400,
150,0,150,up,None,0.39106819999869913,None,,,150,0,150,0,198.99186660000123,,,,,,,,,,,,,,,,,,,,198.9847923000052,198.99186660000123,199.95774359999632,199.94305200000235,1,199.9552268999978,199.95774359999632,199.95774359999632,200.44579610000073,up,200.44586010000785,200.44589620000625,None,0.39106819999869913,None,,,,,,,,,,,001,001,2026-01-21_16h09.24.827,NESC3137_EEG_experiment,,2025.1.1,129.44078990021686,2026-01-21 16h11.31.220878 -0400,
151,0,151,None,None,,,,,151,0,151,0,200.45266280000214,,,,,,,,,,,,,,,,,,,,200.44609270000365,200.45266280000214,201.10992659999465,201.09259110000858,2,201.10685399999784,201.10992659999465,201.10992659999465,201.59820170000603,None,201.5982592000073,201.59830030000012,None,,,,,,,,,,,,,001,001,2026-01-21_16h09.24.827,NESC3137_EEG_experiment,,2025.1.1,129.44078990021686,2026-01-21 16h11.31.220878 -0400,
152,0,152,up,None,0.3273077999911038,0.1355383000045549,,,152,0,152,0,201.60451269999612,,,,,,,,,,,,,,,,,,,,201.59849119999853,201.60451269999612,202.21342390000063,202.19570430000022,2,202.21021340000152,202.21342390000063,202.21342390000063,202.70134460000554,up,202.7014121999964,202.70145190000767,None,0.3273077999911038,0.1355383000045549,,,,,,,,,,,001,001,2026-01-21_16h09.24.827,NESC3137_EEG_experiment,,2025.1.1,129.44078990021686,2026-01-21 16h11.31.220878 -0400,
153,0,153,None,None,,,,,153,0,153,0,202.7085750999977,,,,,,,,,,,,,,,,,,,,202.7016558000032,202.7085750999977,203.40553040000668,203.3893720000051,1,203.40162489999784,203.40553040000668,203.40553040000668,203.89361220000137,None,203.89366650000738,203.89370339999732,None,,,,,,,,,,,,,001,001,2026-01-21_16h09.24.827,NESC3137_EEG_experiment,,2025.1.1,129.44078990021686,2026-01-21 16h11.31.220878 -0400,
154,0,154,None,None,,,,,154,0,154,0,203.9005892999994,,,,,,,,,,,,,,,,,,,,203.89388170000166,203.9005892999994,204.56145160000597,204.54666979999456,1,204.55896239999856,204.56145160000597,204.56145160000597,205.0483430000022,None,205.04840529999638,205.0484437999985,None,,,,,,,,,,,,,001,001,2026-01-21_16h09.24.827,NESC3137_EEG_experiment,,2025.1.1,129.44078990021686,2026-01-21 16h11.31.220878 -0400,
155,0,155,up,None,0.4170440000016242,None,,,155,0,155,0,205.05536860000575,,,,,,,,,,,,,,,,,,,,205.04862980000325,205.05536860000575,205.72338789999776,205.70826970000053,1,205.72075659999973,205.72338789999776,205.72338789999776,206.21107950000442,up,206.21115260000806,206.21118980000028,None,0.4170440000016242,None,,,,,,,,,,,001,001,2026-01-21_16h09.24.827,NESC3137_EEG_experiment,,2025.1.1,129.44078990021686,2026-01-21 16h11.31.220878 -0400,
156,0,156,up,None,0.2903576999960933,0.13613669999176636,,,156,0,156,0,206.21815650000644,,,,,,,,,,,,,,,,,,,,206.21138219999557,206.21815650000644,207.13790250000602,207.12128540000413,1,207.1352396000002,207.13790250000602,207.13790250000602,207.62628029999905,up,207.6263437000016,207.62638090000837,None,0.2903576999960933,0.13613669999176636,,,,,,,,,,,001,001,2026-01-21_16h09.24.827,NESC3137_EEG_experiment,,2025.1.1,129.44078990021686,2026-01-21 16h11.31.220878 -0400,
157,0,157,up,None,0.35362979999626987,0.1203799000068102,,,157,0,157,0,207.6337726000056,,,,,,,,,,,,,,,,,,,,207.62657039999613,207.6337726000056,208.58667910000077,208.5716653999989,1,208.58409570000367,208.58667910000077,208.58667910000077,209.074168799998,up,209.07423559999734,209.07427490000555,None,0.35362979999626987,0.1203799000068102,,,,,,,,,,,001,001,2026-01-21_16h09.24.827,NESC3137_EEG_experiment,,2025.1.1,129.44078990021686,2026-01-21 16h11.31.220878 -0400,
158,0,158,down,None,0.4487752000131877,None,,,158,0,158,0,209.0815367000032,,,,,,,,,,,,,,,,,,,,209.07450420000532,209.0815367000032,209.69961270000204,209.6861951000028,2,209.69778940000106,209.69961270000204,209.69961270000204,210.18682479999552,down,210.18690230000357,210.1869394999958,None,0.4487752000131877,None,,,,,,,,,,,001,001,2026-01-21_16h09.24.827,NESC3137_EEG_experiment,,2025.1.1,129.44078990021686,2026-01-21 16h11.31.220878 -0400,
159,0,159,up,None,0.4377810000005411,None,,,159,0,159,0,210.19435220000742,,,,,,,,,,,,,,,,,,,,210.18714409999666,210.19435220000742,210.90255260000413,210.88872380000248,1,210.90028060000623,210.90255260000413,210.90255260000413,211.38939379999647,up,211.38946390000638,211.3895085999975,None,0.4377810000005411,None,,,,,,,,,,,001,001,2026-01-21_16h09.24.827,NESC3137_EEG_experiment,,2025.1.1,129.44078990021686,2026-01-21 16h11.31.220878 -0400,
160,0,160,down,None,0.4723295000003418,None,,,160,0,160,0,211.3963800000056,,,,,,,,,,,,,,,,,,,,211.38972200000717,211.3963800000056,212.3720031999983,212.35514339999645,2,212.36963509999623,212.3720031999983,212.3720031999983,212.86095470000873,down,212.86102710000705,212.86106440000003,None,0.4723295000003418,None,,,,,,,,,,,001,001,2026-01-21_16h09.24.827,NESC3137_EEG_experiment,,2025.1.1,129.44078990021686,2026-01-21 16h11.31.220878 -0400,
161,0,161,up,None,0.3862564000010025,None,,,161,0,161,0,212.8671411999967,,,,,,,,,,,,,,,,,,,,212.8612992999988,212.8671411999967,213.73012970000855,213.7152223000012,1,213.7282722999953,213.73012970000855,213.73012970000855,214.21845709999616,up,214.21853140000894,214.21856690000277,None,0.3862564000010025,None,,,,,,,,,,,001,001,2026-01-21_16h09.24.827,NESC3137_EEG_experiment,,2025.1.1,129.44078990021686,2026-01-21 16h11.31.220878 -0400,
162,0,162,down,None,0.4664394999999786,None,,,162,0,162,0,214.22477220000292,,,,,,,,,,,,,,,,,,,,214.2187672,214.22477220000292,214.85819929999707,214.84336050000275,2,214.85603470000206,214.85819929999707,214.85819929999707,215.34650359999796,down,215.3466017000028,215.3466691000067,None,0.4664394999999786,None,,,,,,,,,,,001,001,2026-01-21_16h09.24.827,NESC3137_EEG_experiment,,2025.1.1,129.44078990021686,2026-01-21 16h11.31.220878 -0400,
163,0,163,up,None,0.32424380000156816,None,,,163,0,163,0,215.35335309999937,,,,,,,,,,,,,,,,,,,,215.34690720000071,215.35335309999937,215.94416990000173,215.9292376000085,1,215.94138859999657,215.94416990000173,215.94416990000173,216.43098020000616,up,216.4310478999978,216.43108490000304,None,0.32424380000156816,None,,,,,,,,,,,001,001,2026-01-21_16h09.24.827,NESC3137_EEG_experiment,,2025.1.1,129.44078990021686,2026-01-21 16h11.31.220878 -0400,
164,0,164,None,None,,,,,164,0,164,0,216.43715320000774,,,,,,,,,,,,,,,,,,,,216.43130409999867,216.43715320000774,217.070893600001,217.05600769999728,2,217.06820940000762,217.070893600001,217.070893600001,217.5578405999986,None,217.55790949999937,217.5579463000031,None,,,,,,,,,,,,,001,001,2026-01-21_16h09.24.827,NESC3137_EEG_experiment,,2025.1.1,129.44078990021686,2026-01-21 16h11.31.220878 -0400,
165,0,165,None,None,,,,,165,0,165,0,217.56445439999516,,,,,,,,,,,,,,,,,,,,217.55813689999923,217.56445439999516,218.29942209999717,218.28065290000814,2,218.29633640000247,218.29942209999717,218.29942209999717,218.78706570000213,None,218.78712609999639,218.78716500000155,None,,,,,,,,,,,,,001,001,2026-01-21_16h09.24.827,NESC3137_EEG_experiment,,2025.1.1,129.44078990021686,2026-01-21 16h11.31.220878 -0400,
166,0,166,down,None,0.46309040000778623,None,,,166,0,166,0,218.7932584000082,,,,,,,,,,,,,,,,,,,,218.78736539999954,218.7932584000082,219.62121230000048,219.60671459999867,2,219.61940660000255,219.62121230000048,219.62121230000048,220.10955350000586,down,220.10963210000773,220.1096627000079,None,0.46309040000778623,None,,,,,,,,,,,001,001,2026-01-21_16h09.24.827,NESC3137_EEG_experiment,,2025.1.1,129.44078990021686,2026-01-21 16h11.31.220878 -0400,
167,0,167,down,None,0.439586300009978,None,,,167,0,167,0,220.11610480000672,,,,,,,,,,,,,,,,,,,,220.10983339999802,220.11610480000672,220.75700149999466,220.74121089999971,2,220.75415429999703,220.75700149999466,220.75700149999466,221.24499710000237,down,221.24508459999925,221.24512140000297,None,0.439586300009978,None,,,,,,,,,,,001,001,2026-01-21_16h09.24.827,NESC3137_EEG_experiment,,2025.1.1,129.44078990021686,2026-01-21 16h11.31.220878 -0400,
168,0,168,down,None,0.4061990999907721,None,,,168,0,168,0,221.25208890000067,,,,,,,,,,,,,,,,,,,,221.24533420000807,221.25208890000067,221.83032140000432,221.81481039999926,2,221.82753170000797,221.83032140000432,221.83032140000432,222.31853820000833,down,222.318629100002,222.31867120000243,None,0.4061990999907721,None,,,,,,,,,,,001,001,2026-01-21_16h09.24.827,NESC3137_EEG_experiment,,2025.1.1,129.44078990021686,2026-01-21 16h11.31.220878 -0400,
169,0,169,up,None,0.42116189999796916,None,,,169,0,169,0,222.32477220000874,,,,,,,,,,,,,,,,,,,,222.3188599999994,222.32477220000874,223.06311350000033,223.04750040000363,1,223.0601364000031,223.06311350000033,223.06311350000033,223.55219339999894,up,223.5522512000025,223.5522772999975,None,0.42116189999796916,None,,,,,,,,,,,001,001,2026-01-21_16h09.24.827,NESC3137_EEG_experiment,,2025.1.1,129.44078990021686,2026-01-21 16h11.31.220878 -0400,
170,0,170,down,None,0.43006810000224505,None,,,170,0,170,0,223.5587061999977,,,,,,,,,,,,,,,,,,,,223.55243840000185,223.5587061999977,224.51829950000683,224.50342049999745,2,224.51547490000667,224.51829950000683,224.51829950000683,225.0051233999984,down,225.0051894000062,225.00522150000324,None,0.43006810000224505,None,,,,,,,,,,,001,001,2026-01-21_16h09.24.827,NESC3137_EEG_experiment,,2025.1.1,129.44078990021686,2026-01-21 16h11.31.220878 -0400,
171,0,171,down,None,0.4342026999947848,None,,,171,0,171,0,225.01184469999862,,,,,,,,,,,,,,,,,,,,225.00535790000868,225.01184469999862,225.81819160000305,225.80415939999511,2,225.81622429999697,225.81819160000305,225.81819160000305,226.3049505999952,down,226.3050280000025,226.30506899999455,None,0.4342026999947848,None,,,,,,,,,,,001,001,2026-01-21_16h09.24.827,NESC3137_EEG_experiment,,2025.1.1,129.44078990021686,2026-01-21 16h11.31.220878 -0400,
172,0,172,down,None,0.3776526000001468,None,,,172,0,172,0,226.3124722000066,,,,,,,,,,,,,,,,,,,,226.30526310000278,226.3124722000066,227.22667689999798,227.2083558000013,2,227.2229279000021,227.22667689999798,227.22667689999798,227.71454830000584,down,227.71460099999967,227.7146242000017,None,0.3776526000001468,None,,,,,,,,,,,001,001,2026-01-21_16h09.24.827,NESC3137_EEG_experiment,,2025.1.1,129.44078990021686,2026-01-21 16h11.31.220878 -0400,
173,0,173,up,None,0.4713451999996323,None,,,173,0,173,0,227.72122039999522,,,,,,,,,,,,,,,,,,,,227.71476200000325,227.72122039999522,228.3649071999971,228.34617109999817,1,228.36177750000206,228.3649071999971,228.3649071999971,228.85328650000156,up,228.85336670000106,228.85340360000555,None,0.4713451999996323,None,,,,,,,,,,,001,001,2026-01-21_16h09.24.827,NESC3137_EEG_experiment,,2025.1.1,129.44078990021686,2026-01-21 16h11.31.220878 -0400,
174,0,174,None,None,,,,,174,0,174,0,228.85989520000294,,,,,,,,,,,,,,,,,,,,228.85361340000236,228.85989520000294,229.7779914999992,229.76321689999895,2,229.7753176999977,229.7779914999992,229.7779914999992,230.26596699999936,None,230.26602840000123,230.26606740000716,None,,,,,,,,,,,,,001,001,2026-01-21_16h09.24.827,NESC3137_EEG_experiment,,2025.1.1,129.44078990021686,2026-01-21 16h11.31.220878 -0400,
175,0,175,down,None,0.43124689999967813,None,,,175,0,175,0,230.27273810000042,,,,,,,,,,,,,,,,,,,,230.26627029999509,230.27273810000042,230.98129209999752,230.96737790000043,2,230.97942730000068,230.98129209999752,230.98129209999752,231.4679521000071,down,231.46802830000524,231.4680640000006,None,0.43124689999967813,None,,,,,,,,,,,001,001,2026-01-21_16h09.24.827,NESC3137_EEG_experiment,,2025.1.1,129.44078990021686,2026-01-21 16h11.31.220878 -0400,
176,0,176,None,None,,,,,176,0,176,0,231.4756963999971,,,,,,,,,,,,,,,,,,,,231.46825920000265,231.4756963999971,232.05239419999998,232.0382935999951,1,232.04973329999484,232.05239419999998,232.05239419999998,232.53911070000322,None,232.53916670000763,232.5392065000051,None,,,,,,,,,,,,,001,001,2026-01-21_16h09.24.827,NESC3137_EEG_experiment,,2025.1.1,129.44078990021686,2026-01-21 16h11.31.220878 -0400,
177,0,177,None,None,,,,,177,0,177,0,232.54534490000515,,,,,,,,,,,,,,,,,,,,232.53938170000038,232.54534490000515,233.04773000000569,233.03264430000854,1,233.0448929999984,233.04773000000569,233.04773000000569,233.53516970000055,None,233.53522689999954,233.53526469999633,None,,,,,,,,,,,,,001,001,2026-01-21_16h09.24.827,NESC3137_EEG_experiment,,2025.1.1,129.44078990021686,2026-01-21 16h11.31.220878 -0400,
178,0,178,down,None,0.41052390000550076,None,,,178,0,178,0,233.5421534000052,,,,,,,,,,,,,,,,,,,,233.53546359999746,233.5421534000052,234.09793360000185,234.08411559999513,2,234.0962686999992,234.09793360000185,234.09793360000185,234.58517610000854,down,234.58522829999856,234.58525240000745,None,0.41052390000550076,None,,,,,,,,,,,001,001,2026-01-21_16h09.24.827,NESC3137_EEG_experiment,,2025.1.1,129.44078990021686,2026-01-21 16h11.31.220878 -0400,
179,0,179,None,None,,,,,179,0,179,0,234.59180779999588,,,,,,,,,,,,,,,,,,,,234.58546850000857,234.59180779999588,235.2117830000061,235.1967469000083,2,235.20914099999936,235.2117830000061,235.2117830000061,235.69963840000855,None,235.69970060000196,235.69974120000552,None,,,,,,,,,,,,,001,001,2026-01-21_16h09.24.827,NESC3137_EEG_experiment,,2025.1.1,129.44078990021686,2026-01-21 16h11.31.220878 -0400,
180,0,180,up,None,0.3786351000017021,None,,,180,0,180,0,235.70577640000556,,,,,,,,,,,,,,,,,,,,235.69995569999446,235.70577640000556,236.40177850000327,236.38055950000125,1,236.39642810000805,236.40177850000327,236.40177850000327,236.88105019999784,up,236.88109789999726,236.8811199000047,None,0.3786351000017021,None,,,,,,,,,,,001,001,2026-01-21_16h09.24.827,NESC3137_EEG_experiment,,2025.1.1,129.44078990021686,2026-01-21 16h11.31.220878 -0400,
181,0,181,None,None,,,,,181,0,181,0,236.88767650000227,,,,,,,,,,,,,,,,,,,,236.8812528999988,236.88767650000227,237.88318950000394,237.8677241999976,2,237.88057649999973,237.88318950000394,237.88318950000394,238.37108640000224,None,238.3711556000053,238.37119520000124,None,,,,,,,,,,,,,001,001,2026-01-21_16h09.24.827,NESC3137_EEG_experiment,,2025.1.1,129.44078990021686,2026-01-21 16h11.31.220878 -0400,
182,0,182,up,None,0.39492089999839664,None,,,182,0,182,0,238.37802459999511,,,,,,,,,,,,,,,,,,,,238.37139990000287,238.37802459999511,239.11342449999938,239.093658400001,1,239.1096819999948,239.11342449999938,239.11342449999938,239.5942900000082,up,239.59436519999872,239.59440590000304,None,0.39492089999839664,None,,,,,,,,,,,001,001,2026-01-21_16h09.24.827,NESC3137_EEG_experiment,,2025.1.1,129.44078990021686,2026-01-21 16h11.31.220878 -0400,
183,0,183,up,None,0.44678209999983665,None,,,183,0,183,0,239.60078979999525,,,,,,,,,,,,,,,,,,,,239.5946210999973,239.60078979999525,240.38965969999845,240.3722645000089,1,240.38662970000587,240.38965969999845,240.38965969999845,240.87857010000153,up,240.87869320000755,240.87873710000713,None,0.44678209999983665,None,,,,,,,,,,,001,001,2026-01-21_16h09.24.827,NESC3137_EEG_experiment,,2025.1.1,129.44078990021686,2026-01-21 16h11.31.220878 -0400,
184,0,184,None,None,,,,,184,0,184,0,240.8850390000007,,,,,,,,,,,,,,,,,,,,240.87897150000208,240.8850390000007,241.4439255000034,241.42688130000897,1,241.44102339999517,241.4439255000034,241.4439255000034,241.93253849999746,None,241.93259530000796,241.93262970000796,None,,,,,,,,,,,,,001,001,2026-01-21_16h09.24.827,NESC3137_EEG_experiment,,2025.1.1,129.44078990021686,2026-01-21 16h11.31.220878 -0400,
185,0,185,up,None,0.45672930000000633,None,,,185,0,185,0,241.9395266000065,,,,,,,,,,,,,,,,,,,,241.93280900000536,241.9395266000065,242.49157700000796,242.47472959999868,1,242.48918170000252,242.49157700000796,242.49157700000796,242.9801368000044,up,242.9801998000039,242.98023309999553,None,0.45672930000000633,None,,,,,,,,,,,001,001,2026-01-21_16h09.24.827,NESC3137_EEG_experiment,,2025.1.1,129.44078990021686,2026-01-21 16h11.31.220878 -0400,
186,0,186,None,None,,,,,186,0,186,0,242.9870937000087,,,,,,,,,,,,,,,,,,,,242.9804046000063,242.9870937000087,243.97404390000156,243.9596246000001,1,243.97211109999625,243.97404390000156,243.97404390000156,244.4616182000027,None,244.46170100000745,244.4617400999996,None,,,,,,,,,,,,,001,001,2026-01-21_16h09.24.827,NESC3137_EEG_experiment,,2025.1.1,129.44078990021686,2026-01-21 16h11.31.220878 -0400,
187,0,187,None,None,,,,,187,0,187,0,244.4675780999969,,,,,,,,,,,,,,,,,,,,244.4619698000024,244.4675780999969,245.0590921999974,245.0448599000083,1,245.05715449999843,245.0590921999974,245.0590921999974,245.54699279999477,None,245.54704570000467,245.54707080000662,None,,,,,,,,,,,,,001,001,2026-01-21_16h09.24.827,NESC3137_EEG_experiment,,2025.1.1,129.44078990021686,2026-01-21 16h11.31.220878 -0400,
188,0,188,down,None,0.4484647000062978,None,,,188,0,188,0,245.55264120000356,,,,,,,,,,,,,,,,,,,,245.5472172000009,245.55264120000356,246.11720320000313,246.10200110000733,2,246.11429450000287,246.11720320000313,246.11720320000313,246.60668290000467,down,246.60675679999986,246.60679119999986,None,0.4484647000062978,None,,,,,,,,,,,001,001,2026-01-21_16h09.24.827,NESC3137_EEG_experiment,,2025.1.1,129.44078990021686,2026-01-21 16h11.31.220878 -0400,
189,0,189,down,None,0.44928599998820573,None,,,189,0,189,0,246.61313009999867,,,,,,,,,,,,,,,,,,,,246.60698460000276,246.61313009999867,247.16310770000564,247.1481752999971,2,247.1604517000087,247.16310770000564,247.16310770000564,247.65095160000783,down,247.65101950000098,247.6510724999971,None,0.44928599998820573,None,,,,,,,,,,,001,001,2026-01-21_16h09.24.827,NESC3137_EEG_experiment,,2025.1.1,129.44078990021686,2026-01-21 16h11.31.220878 -0400,
190,0,190,down,None,0.4756902999943122,None,,,190,0,190,0,247.65781449999486,,,,,,,,,,,,,,,,,,,,247.6512831,247.65781449999486,248.62487110000802,248.60899770000833,2,248.62202589999652,248.62487110000802,248.62487110000802,249.11262010000064,down,249.11270670000522,249.11275309999473,None,0.4756902999943122,None,,,,,,,,,,,001,001,2026-01-21_16h09.24.827,NESC3137_EEG_experiment,,2025.1.1,129.44078990021686,2026-01-21 16h11.31.220878 -0400,
191,0,191,None,None,,,,,191,0,191,0,249.119351500005,,,,,,,,,,,,,,,,,,,,249.11297509999713,249.119351500005,249.72771799999464,249.71017700000084,2,249.72526910000306,249.72771799999464,249.72771799999464,250.2165396000055,None,250.21662000000651,250.2166450000077,None,,,,,,,,,,,,,001,001,2026-01-21_16h09.24.827,NESC3137_EEG_experiment,,2025.1.1,129.44078990021686,2026-01-21 16h11.31.220878 -0400,
192,0,192,None,None,,,,,192,0,192,0,250.2234524999949,,,,,,,,,,,,,,,,,,,,250.21683109999867,250.2234524999949,251.19704769999953,251.18227610000758,1,251.19516139999905,251.19704769999953,251.19704769999953,251.68531319999602,None,251.68536800000584,251.6854025000066,None,,,,,,,,,,,,,001,001,2026-01-21_16h09.24.827,NESC3137_EEG_experiment,,2025.1.1,129.44078990021686,2026-01-21 16h11.31.220878 -0400,
193,0,193,down,None,0.4263595999946119,None,,,193,0,193,0,251.69154549999803,,,,,,,,,,,,,,,,,,,,251.68558560000383,251.69154549999803,252.61809420000645,252.60246399999596,2,252.61586140000145,252.61809420000645,252.61809420000645,253.10714860000007,down,253.10722489999898,253.10726180000347,None,0.4263595999946119,None,,,,,,,,,,,001,001,2026-01-21_16h09.24.827,NESC3137_EEG_experiment,,2025.1.1,129.44078990021686,2026-01-21 16h11.31.220878 -0400,
194,0,194,down,None,0.4561262000061106,None,,,194,0,194,0,253.11353000000236,,,,,,,,,,,,,,,,,,,,253.10748839999724,253.11353000000236,253.7402648999996,253.725368600004,2,253.73765619999904,253.7402648999996,253.7402648999996,254.2281767999957,down,254.22826620000706,254.22831429999496,None,0.4561262000061106,None,,,,,,,,,,,001,001,2026-01-21_16h09.24.827,NESC3137_EEG_experiment,,2025.1.1,129.44078990021686,2026-01-21 16h11.31.220878 -0400,
195,0,195,down,None,0.38125350000336766,None,,,195,0,195,0,254.23487610000302,,,,,,,,,,,,,,,,,,,,254.22869640000863,254.23487610000302,254.89514690000215,254.8803767000063,2,254.89229669999622,254.89514690000215,254.89514690000215,255.3819846999977,down,255.3820366,255.3820607999951,None,0.38125350000336766,None,,,,,,,,,,,001,001,2026-01-21_16h09.24.827,NESC3137_EEG_experiment,,2025.1.1,129.44078990021686,2026-01-21 16h11.31.220878 -0400,
196,0,196,down,None,0.404426399996737,None,,,196,0,196,0,255.3886085999984,,,,,,,,,,,,,,,,,,,,255.3822041999956,255.3886085999984,256.2800639000052,256.2646434000053,2,256.2772724999959,256.2800639000052,256.2800639000052,256.76790849999816,down,256.76797319999605,256.76800809999986,None,0.404426399996737,None,,,,,,,,,,,001,001,2026-01-21_16h09.24.827,NESC3137_EEG_experiment,,2025.1.1,129.44078990021686,2026-01-21 16h11.31.220878 -0400,
197,0,197,up,None,0.4539225000044098,None,,,197,0,197,0,256.77421889999823,,,,,,,,,,,,,,,,,,,,256.7681866000057,256.77421889999823,257.50252520000504,257.4844862000027,1,257.4991078000021,257.50252520000504,257.50252520000504,257.9896232000028,up,257.9896904000052,257.9897301000019,None,0.4539225000044098,None,,,,,,,,,,,001,001,2026-01-21_16h09.24.827,NESC3137_EEG_experiment,,2025.1.1,129.44078990021686,2026-01-21 16h11.31.220878 -0400,
198,0,198,up,None,0.3819703000044683,None,,,198,0,198,0,257.99685179999506,,,,,,,,,,,,,,,,,,,,257.9899307000014,257.99685179999506,258.6543912000052,258.6364714999945,1,258.65142140000535,258.6543912000052,258.6543912000052,259.1422320999991,up,259.14229299999715,259.1423270999949,None,0.3819703000044683,None,,,,,,,,,,,001,001,2026-01-21_16h09.24.827,NESC3137_EEG_experiment,,2025.1.1,129.44078990021686,2026-01-21 16h11.31.220878 -0400,
199,0,199,up,None,0.33729319999110885,None,,,199,0,199,0,259.14883669999836,,,,,,,,,,,,,,,,,,,,259.1425065000076,259.14883669999836,260.0190638000058,260.0044048999989,1,260.0165566000069,260.0190638000058,260.0190638000058,260.5074384000036,up,260.5075085999997,260.5075452000019,None,0.33729319999110885,None,,,,,,,,,,,001,001,2026-01-21_16h09.24.827,NESC3137_EEG_experiment,,2025.1.1,129.44078990021686,2026-01-21 16h11.31.220878 -0400,
200,0,200,up,space,0.40060649999941234,None,3.6832048000069335,None,200,0,200,0,260.51471319999837,,,,,,,,,,,,,,,,,,,,260.5077581000078,260.51471319999837,261.4117278000049,261.3965855999995,1,261.4085530000011,261.4117278000049,261.4117278000049,261.8992358999967,up,261.8993052000005,295.5771409000008,space,0.40060649999941234,None,261.9060349000065,291.88926090000314,291.88926090000314,291.8956959000061,3.6832048000069335,None,,,,,001,001,2026-01-21_16h09.24.827,NESC3137_EEG_experiment,,2025.1.1,129.44078990021686,2026-01-21 16h11.31.220878 -0400,
201,0,201,up,None,0.4379779999871971,None,,,201,0,201,0,295.5843812999956,,,,,,,,,,,,,,,,,,,,295.57735410000896,295.5843812999956,296.55085959999997,296.53521360000013,1,296.5481914999982,296.55085959999997,296.55085959999997,297.0385427000001,up,297.03859720000764,297.038621300002,None,0.4379779999871971,None,,,,,,,,,,,001,001,2026-01-21_16h09.24.827,NESC3137_EEG_experiment,,2025.1.1,129.44078990021686,2026-01-21 16h11.31.220878 -0400,
202,0,202,up,None,0.34990460000699386,None,,,202,0,202,0,297.04576209999504,,,,,,,,,,,,,,,,,,,,297.0387664000009,297.04576209999504,297.7746632000053,297.7542304999952,1,297.7722336000006,297.7746632000053,297.7746632000053,298.2549469000078,up,298.25501429999713,298.2550515000039,None,0.34990460000699386,None,,,,,,,,,,,001,001,2026-01-21_16h09.24.827,NESC3137_EEG_experiment,,2025.1.1,129.44078990021686,2026-01-21 16h11.31.220878 -0400,
203,0,203,down,None,0.42305739999574143,None,,,203,0,203,0,298.26148430000467,,,,,,,,,,,,,,,,,,,,298.25524090000545,298.26148430000467,299.0453542000032,299.0260108000075,2,299.04250769999635,299.0453542000032,299.0453542000032,299.5329741000023,down,299.5330447000015,299.53308550000656,None,0.42305739999574143,None,,,,,,,,,,,001,001,2026-01-21_16h09.24.827,NESC3137_EEG_experiment,,2025.1.1,129.44078990021686,2026-01-21 16h11.31.220878 -0400,
204,0,204,None,None,,,,,204,0,204,0,299.53950420000183,,,,,,,,,,,,,,,,,,,,299.5333032000053,299.53950420000183,300.24326210000436,300.22816080000484,2,300.24045460000343,300.24326210000436,300.24326210000436,300.73095450000255,None,300.73100780000095,300.7310440000001,None,,,,,,,,,,,,,001,001,2026-01-21_16h09.24.827,NESC3137_EEG_experiment,,2025.1.1,129.44078990021686,2026-01-21 16h11.31.220878 -0400,
205,0,205,None,None,,,,,205,0,205,0,300.7375699999975,,,,,,,,,,,,,,,,,,,,300.73127089999616,300.7375699999975,301.2669930999982,301.2520055000059,1,301.2643301000062,301.2669930999982,301.2669930999982,301.7539001999976,None,301.753967800003,301.75400489999447,None,,,,,,,,,,,,,001,001,2026-01-21_16h09.24.827,NESC3137_EEG_experiment,,2025.1.1,129.44078990021686,2026-01-21 16h11.31.220878 -0400,
206,0,206,up,None,0.4563856000022497,None,,,206,0,206,0,301.7604930999951,,,,,,,,,,,,,,,,,,,,301.7541887999978,301.7604930999951,302.7560080999974,302.7402957000013,1,302.75345519999973,302.7560080999974,302.7560080999974,303.243925200004,up,303.2439757999964,303.2439987999969,None,0.4563856000022497,None,,,,,,,,,,,001,001,2026-01-21_16h09.24.827,NESC3137_EEG_experiment,,2025.1.1,129.44078990021686,2026-01-21 16h11.31.220878 -0400,
207,0,207,None,None,,,,,207,0,207,0,303.2511314000003,,,,,,,,,,,,,,,,,,,,303.24413760000607,303.2511314000003,303.7724434999982,303.7579320000077,2,303.7698592000088,303.7724434999982,303.7724434999982,304.2609736000013,None,304.2610321999964,304.26106649999565,None,,,,,,,,,,,,,001,001,2026-01-21_16h09.24.827,NESC3137_EEG_experiment,,2025.1.1,129.44078990021686,2026-01-21 16h11.31.220878 -0400,
208,0,208,down,None,0.415647000001627,None,,,208,0,208,0,304.26733380000223,,,,,,,,,,,,,,,,,,,,304.26125920000777,304.26733380000223,305.1329917999974,305.1150292999955,2,305.1307350999996,305.1329917999974,305.1329917999974,305.6212891000032,down,305.62135359999957,305.6213885000034,None,0.415647000001627,None,,,,,,,,,,,001,001,2026-01-21_16h09.24.827,NESC3137_EEG_experiment,,2025.1.1,129.44078990021686,2026-01-21 16h11.31.220878 -0400,
209,0,209,down,None,0.40661930000351276,None,,,209,0,209,0,305.62853679999535,,,,,,,,,,,,,,,,,,,,305.62157679999655,305.62853679999535,306.3657993000088,306.3508068000083,2,306.36327560000063,306.3657993000088,306.3657993000088,306.8542080000043,down,306.85427330000675,306.85429970000405,None,0.40661930000351276,None,,,,,,,,,,,001,001,2026-01-21_16h09.24.827,NESC3137_EEG_experiment,,2025.1.1,129.44078990021686,2026-01-21 16h11.31.220878 -0400,
210,0,210,up,None,0.36871500000415836,None,,,210,0,210,0,306.86004300000786,,,,,,,,,,,,,,,,,,,,306.85447320000094,306.86004300000786,307.77182979999634,307.75615539999853,1,307.7689792000019,307.77182979999634,307.77182979999634,308.2594775000034,up,308.25952760000655,308.2595539000031,None,0.36871500000415836,None,,,,,,,,,,,001,001,2026-01-21_16h09.24.827,NESC3137_EEG_experiment,,2025.1.1,129.44078990021686,2026-01-21 16h11.31.220878 -0400,
211,0,211,None,None,,,,,211,0,211,0,308.26620179999736,,,,,,,,,,,,,,,,,,,,308.2596932000015,308.26620179999736,309.15772620000644,309.1416365000041,2,309.1545325000043,309.15772620000644,309.15772620000644,309.6463431000011,None,309.64642099999764,309.64646920000087,None,,,,,,,,,,,,,001,001,2026-01-21_16h09.24.827,NESC3137_EEG_experiment,,2025.1.1,129.44078990021686,2026-01-21 16h11.31.220878 -0400,
212,0,212,down,None,0.47887659999832977,None,,,212,0,212,0,309.653316099997,,,,,,,,,,,,,,,,,,,,309.6467455999955,309.653316099997,310.3979049000045,310.38229480000155,2,310.39468480000505,310.3979049000045,310.3979049000045,310.88454600000114,down,310.88462060000165,310.8846516000049,None,0.47887659999832977,None,,,,,,,,,,,001,001,2026-01-21_16h09.24.827,NESC3137_EEG_experiment,,2025.1.1,129.44078990021686,2026-01-21 16h11.31.220878 -0400,
213,0,213,None,None,,,,,213,0,213,0,310.89172040000267,,,,,,,,,,,,,,,,,,,,310.88484230000176,310.89172040000267,311.496456199995,311.48198070000217,1,311.4941420999967,311.496456199995,311.496456199995,311.9837922000006,None,311.98390310000104,311.98393390000274,None,,,,,,,,,,,,,001,001,2026-01-21_16h09.24.827,NESC3137_EEG_experiment,,2025.1.1,129.44078990021686,2026-01-21 16h11.31.220878 -0400,
214,0,214,up,None,0.41811680000682827,None,,,214,0,214,0,311.9904499999975,,,,,,,,,,,,,,,,,,,,311.984117400003,311.9904499999975,312.76334170000337,312.7479328000045,1,312.7607435999962,312.76334170000337,312.76334170000337,313.2513828999945,up,313.2514392000012,313.25146210000094,None,0.41811680000682827,None,,,,,,,,,,,001,001,2026-01-21_16h09.24.827,NESC3137_EEG_experiment,,2025.1.1,129.44078990021686,2026-01-21 16h11.31.220878 -0400,
215,0,215,down,None,0.449345800006995,None,,,215,0,215,0,313.2578835000022,,,,,,,,,,,,,,,,,,,,313.2516026000085,313.2578835000022,314.0189701000054,314.0015213000006,2,314.0156668999989,314.0189701000054,314.0189701000054,314.5079293000017,down,314.5080153000017,314.5080537000031,None,0.449345800006995,None,,,,,,,,,,,001,001,2026-01-21_16h09.24.827,NESC3137_EEG_experiment,,2025.1.1,129.44078990021686,2026-01-21 16h11.31.220878 -0400,
216,0,216,None,None,,,,,216,0,216,0,314.51448500000697,,,,,,,,,,,,,,,,,,,,314.5082589000085,314.51448500000697,315.2512440999999,315.236587899999,2,315.2485178000061,315.2512440999999,315.2512440999999,315.7379675999982,None,315.7380261000071,315.7380625000078,None,,,,,,,,,,,,,001,001,2026-01-21_16h09.24.827,NESC3137_EEG_experiment,,2025.1.1,129.44078990021686,2026-01-21 16h11.31.220878 -0400,
217,0,217,down,None,0.4020888999948511,None,,,217,0,217,0,315.7449310999946,,,,,,,,,,,,,,,,,,,,315.73824859999877,315.7449310999946,316.64289840000856,316.62747999999556,2,316.6400877999986,316.64289840000856,316.64289840000856,317.13083290000213,down,317.13091449999774,317.13094909999927,None,0.4020888999948511,None,,,,,,,,,,,001,001,2026-01-21_16h09.24.827,NESC3137_EEG_experiment,,2025.1.1,129.44078990021686,2026-01-21 16h11.31.220878 -0400,
218,0,218,None,None,,,,,218,0,218,0,317.13801870000316,,,,,,,,,,,,,,,,,,,,317.1311627999967,317.13801870000316,317.70832069999597,317.6933382999996,1,317.705624299997,317.70832069999597,317.70832069999597,318.19470290000027,None,318.1947652999952,318.1948020999989,None,,,,,,,,,,,,,001,001,2026-01-21_16h09.24.827,NESC3137_EEG_experiment,,2025.1.1,129.44078990021686,2026-01-21 16h11.31.220878 -0400,
219,0,219,None,None,,,,,219,0,219,0,318.20239940000465,,,,,,,,,,,,,,,,,,,,318.19499269999505,318.20239940000465,318.81470299999637,318.7994861000043,1,318.8115736000036,318.81470299999637,318.81470299999637,319.30229409999447,None,319.30235399999947,319.30239179999626,None,,,,,,,,,,,,,001,001,2026-01-21_16h09.24.827,NESC3137_EEG_experiment,,2025.1.1,129.44078990021686,2026-01-21 16h11.31.220878 -0400,
220,0,220,up,None,0.47332279999682214,None,,,220,0,220,0,319.30893139999534,,,,,,,,,,,,,,,,,,,,319.3025826999947,319.30893139999534,319.8194055000058,319.8023491000058,1,319.8166851999995,319.8194055000058,319.8194055000058,320.3079457999993,up,320.3080101000087,320.3080456000025,None,0.47332279999682214,None,,,,,,,,,,,001,001,2026-01-21_16h09.24.827,NESC3137_EEG_experiment,,2025.1.1,129.44078990021686,2026-01-21 16h11.31.220878 -0400,
221,0,221,up,None,0.436074400000507,None,,,221,0,221,0,320.31467910000356,,,,,,,,,,,,,,,,,,,,320.3082282999967,320.31467910000356,320.94436150000547,320.9263270999945,1,320.9414867000014,320.94436150000547,320.94436150000547,321.4325960999995,up,321.4326604000089,321.4326938000013,None,0.436074400000507,None,,,,,,,,,,,001,001,2026-01-21_16h09.24.827,NESC3137_EEG_experiment,,2025.1.1,129.44078990021686,2026-01-21 16h11.31.220878 -0400,
222,0,222,up,None,0.417082499989192,None,,,222,0,222,0,321.43931830000656,,,,,,,,,,,,,,,,,,,,321.4328746999963,321.43931830000656,322.32344849999936,322.30781159999606,1,322.32094679999864,322.32344849999936,322.32344849999936,322.81103310000617,up,322.8111033000023,322.81114140000136,None,0.417082499989192,None,,,,,,,,,,,001,001,2026-01-21_16h09.24.827,NESC3137_EEG_experiment,,2025.1.1,129.44078990021686,2026-01-21 16h11.31.220878 -0400,
223,0,223,None,None,,,,,223,0,223,0,322.8185852000024,,,,,,,,,,,,,,,,,,,,322.8113883000042,322.8185852000024,323.80515050000395,323.7910625000077,2,323.80270110000856,323.80515050000395,323.80515050000395,324.29248709999956,None,324.29254260000016,324.29257810000854,None,,,,,,,,,,,,,001,001,2026-01-21_16h09.24.827,NESC3137_EEG_experiment,,2025.1.1,129.44078990021686,2026-01-21 16h11.31.220878 -0400,
224,0,224,down,None,0.37254500000562984,None,,,224,0,224,0,324.29930690000765,,,,,,,,,,,,,,,,,,,,324.29275300000154,324.29930690000765,325.2238694999978,325.2094900000084,2,325.2212615000026,325.2238694999978,325.2238694999978,325.71130569999514,down,325.7113590000081,325.71138449999853,None,0.37254500000562984,None,,,,,,,,,,,001,001,2026-01-21_16h09.24.827,NESC3137_EEG_experiment,,2025.1.1,129.44078990021686,2026-01-21 16h11.31.220878 -0400,
225,0,225,down,None,0.3869150999962585,None,,,225,0,225,0,325.7180495000066,,,,,,,,,,,,,,,,,,,,325.7115303000028,325.7180495000066,326.545478,326.5310041000048,2,326.5429460000014,326.545478,326.545478,327.03253779999795,down,327.03260570000566,327.0326308000076,None,0.3869150999962585,None,,,,,,,,,,,001,001,2026-01-21_16h09.24.827,NESC3137_EEG_experiment,,2025.1.1,129.44078990021686,2026-01-21 16h11.31.220878 -0400,
226,0,226,None,None,,,,,226,0,226,0,327.03955070000666,,,,,,,,,,,,,,,,,,,,327.0328043000045,327.03955070000666,327.824858100008,327.8103048000048,1,327.82220180000877,327.824858100008,327.824858100008,328.31119580000814,None,328.31125460000476,328.3112933000084,None,,,,,,,,,,,,,001,001,2026-01-21_16h09.24.827,NESC3137_EEG_experiment,,2025.1.1,129.44078990021686,2026-01-21 16h11.31.220878 -0400,
227,0,227,None,None,,,,,227,0,227,0,328.31847490000655,,,,,,,,,,,,,,,,,,,,328.3114762000041,328.31847490000655,328.9312243000022,328.91638700000476,2,328.92866920000233,328.9312243000022,328.9312243000022,329.41899540000304,None,329.41904000000795,329.4190635999985,None,,,,,,,,,,,,,001,001,2026-01-21_16h09.24.827,NESC3137_EEG_experiment,,2025.1.1,129.44078990021686,2026-01-21 16h11.31.220878 -0400,
228,0,228,None,None,,,,,228,0,228,0,329.4258734000032,,,,,,,,,,,,,,,,,,,,329.41919380000036,329.4258734000032,330.1663886000024,330.14870230000815,2,330.1634671000065,330.1663886000024,330.1663886000024,330.654695899997,None,330.65475260000676,330.6547886000044,None,,,,,,,,,,,,,001,001,2026-01-21_16h09.24.827,NESC3137_EEG_experiment,,2025.1.1,129.44078990021686,2026-01-21 16h11.31.220878 -0400,
229,0,229,down,None,0.4253215999924578,None,,,229,0,229,0,330.6609892999986,,,,,,,,,,,,,,,,,,,,330.654982299995,330.6609892999986,331.62717910000356,331.6132588000037,2,331.6251967999997,331.62717910000356,331.62717910000356,332.1146233000036,down,332.1146968999965,332.1147343000048,None,0.4253215999924578,None,,,,,,,,,,,001,001,2026-01-21_16h09.24.827,NESC3137_EEG_experiment,,2025.1.1,129.44078990021686,2026-01-21 16h11.31.220878 -0400,
